Folder: Physical-Chemistry-Experiment/循环伏安/analysis/114514

Note: 循环伏安/analysis/114514/blank0_1new.txt
Nov. 2, 2023   12:36:52
Cyclic Voltammetry
File: c:\users\dell\desktop\电化学数据\114514\blank0_1new.txt
Data Source:  Experiment
Instrument Model:  CHI600B
Header: 
Note: 

Init E (V) = -0.25
High E (V) = 1.25
Low E (V) = -0.3
Init P/N = P
Scan Rate (V/s) = 0.1
Segment = 8
Sample Interval (V) = 0.01
Quiet Time (sec) = 1
Sensitivity (A/V) = 1e-5

Segment 1:

Segment 2:
Ep = 0.390V
ip = 4.090e-6A
Ah = 3.485e-6C

Ep = -0.290V
ip = 2.435e-6A
Ah = 1.914e-6C

Segment 3:
Ep = -0.080V
ip = -2.860e-7A
Ah = -9.891e-8C

Segment 4:
Ep = 0.390V
ip = 4.399e-6A
Ah = 3.880e-6C

Ep = -0.290V
ip = 1.874e-6A
Ah = 1.667e-6C

Segment 5:

Segment 6:
Ep = 0.400V
ip = 4.426e-6A
Ah = 3.389e-6C

Ep = -0.290V
ip = 2.240e-6A
Ah = 1.894e-6C

Segment 7:

Segment 8:
Ep = 0.400V
ip = 4.557e-6A
Ah = 3.552e-6C

Potential/V, Current/A, Charge/C

Segment 1:
-0.240, -1.591e-6, -1.591e-7
-0.230, -1.640e-6, -3.230e-7
-0.220, -1.771e-6, -5.001e-7
-0.210, -1.861e-6, -6.862e-7
-0.200, -1.785e-6, -8.647e-7
-0.190, -1.715e-6, -1.036e-6
-0.180, -1.738e-6, -1.210e-6
-0.170, -1.709e-6, -1.381e-6
-0.160, -1.572e-6, -1.538e-6
-0.150, -1.525e-6, -1.691e-6
-0.140, -1.579e-6, -1.848e-6
-0.130, -1.555e-6, -2.004e-6
-0.120, -1.478e-6, -2.152e-6
-0.110, -1.487e-6, -2.301e-6
-0.100, -1.552e-6, -2.456e-6
-0.090, -1.562e-6, -2.612e-6
-0.080, -1.516e-6, -2.763e-6
-0.070, -1.529e-6, -2.916e-6
-0.060, -1.555e-6, -3.072e-6
-0.050, -1.469e-6, -3.219e-6
-0.040, -1.256e-6, -3.344e-6
-0.030, -1.034e-6, -3.448e-6
-0.020, -8.990e-7, -3.538e-6
-0.010, -8.036e-7, -3.618e-6
0.000, -7.068e-7, -3.689e-6
0.010, -6.224e-7, -3.751e-6
0.020, -5.759e-7, -3.809e-6
0.030, -5.522e-7, -3.864e-6
0.040, -5.213e-7, -3.916e-6
0.050, -4.855e-7, -3.964e-6
0.060, -4.721e-7, -4.012e-6
0.070, -4.661e-7, -4.058e-6
0.080, -4.660e-7, -4.105e-6
0.090, -4.501e-7, -4.150e-6
0.100, -4.449e-7, -4.194e-6
0.110, -4.443e-7, -4.239e-6
0.120, -4.529e-7, -4.284e-6
0.130, -4.500e-7, -4.329e-6
0.140, -4.497e-7, -4.374e-6
0.150, -4.480e-7, -4.419e-6
0.160, -4.516e-7, -4.464e-6
0.170, -4.532e-7, -4.509e-6
0.180, -4.538e-7, -4.555e-6
0.190, -4.518e-7, -4.600e-6
0.200, -4.553e-7, -4.645e-6
0.210, -4.572e-7, -4.691e-6
0.220, -4.646e-7, -4.738e-6
0.230, -4.599e-7, -4.784e-6
0.240, -4.640e-7, -4.830e-6
0.250, -4.762e-7, -4.878e-6
0.260, -4.912e-7, -4.927e-6
0.270, -4.946e-7, -4.976e-6
0.280, -4.934e-7, -5.026e-6
0.290, -5.023e-7, -5.076e-6
0.300, -5.129e-7, -5.127e-6
0.310, -5.309e-7, -5.180e-6
0.320, -5.381e-7, -5.234e-6
0.330, -5.483e-7, -5.289e-6
0.340, -5.565e-7, -5.344e-6
0.350, -5.868e-7, -5.403e-6
0.360, -5.943e-7, -5.463e-6
0.370, -6.026e-7, -5.523e-6
0.380, -6.137e-7, -5.584e-6
0.390, -6.469e-7, -5.649e-6
0.400, -6.704e-7, -5.716e-6
0.410, -6.883e-7, -5.785e-6
0.420, -7.085e-7, -5.856e-6
0.430, -7.449e-7, -5.930e-6
0.440, -7.895e-7, -6.009e-6
0.450, -8.244e-7, -6.091e-6
0.460, -8.585e-7, -6.177e-6
0.470, -9.068e-7, -6.268e-6
0.480, -9.852e-7, -6.367e-6
0.490, -1.065e-6, -6.473e-6
0.500, -1.145e-6, -6.588e-6
0.510, -1.228e-6, -6.710e-6
0.520, -1.337e-6, 

Note: 循环伏安/analysis/114514/blank0_5new.txt
Nov. 2, 2023   12:30:10
Cyclic Voltammetry
File: c:\users\dell\desktop\电化学数据\114514\blank0_5new.txt
Data Source:  Experiment
Instrument Model:  CHI600B
Header: 
Note: 

Init E (V) = -0.25
High E (V) = 1.25
Low E (V) = -0.3
Init P/N = P
Scan Rate (V/s) = 0.5
Segment = 8
Sample Interval (V) = 0.01
Quiet Time (sec) = 1
Sensitivity (A/V) = 1e-5

Segment 1:
Ep = 0.710V
ip = -1.356e-7A
Ah = -4.751e-9C

Segment 2:
Ep = 0.370V
ip = 1.559e-5A
Ah = 2.673e-6C

Ep = -0.090V
ip = 6.961e-6A
Ah = 8.240e-7C

Segment 3:
Ep = 1.240V
ip = -2.014e-6A
Ah = -2.196e-7C

Segment 4:
Ep = 0.370V
ip = 1.681e-5A
Ah = 3.001e-6C

Ep = -0.080V
ip = 7.566e-6A
Ah = 7.768e-7C

Segment 5:
Ep = 1.240V
ip = -1.968e-6A
Ah = -1.930e-7C

Segment 6:
Ep = 0.370V
ip = 1.775e-5A
Ah = 3.192e-6C

Ep = -0.080V
ip = 7.406e-6A
Ah = 7.856e-7C

Segment 7:
Ep = -0.060V
ip = -2.729e-6A
Ah = -2.120e-7C

Ep = 1.240V
ip = -2.076e-6A
Ah = -2.207e-7C

Segment 8:
Ep = 0.370V
ip = 1.807e-5A
Ah = 3.248e-6C

Ep = -0.080V
ip = 8.051e-6A
Ah = 8.376e-7C

Potential/V, Current/A, Charge/C

Segment 1:
-0.240, -9.725e-6, -1.945e-7
-0.230, -1.018e-5, -3.981e-7
-0.220, -1.027e-5, -6.034e-7
-0.210, -1.019e-5, -8.072e-7
-0.200, -1.023e-5, -1.012e-6
-0.190, -1.016e-5, -1.215e-6
-0.180, -9.805e-6, -1.411e-6
-0.170, -9.178e-6, -1.595e-6
-0.160, -8.590e-6, -1.766e-6
-0.150, -8.213e-6, -1.931e-6
-0.140, -8.077e-6, -2.092e-6
-0.130, -8.110e-6, -2.254e-6
-0.120, -8.283e-6, -2.420e-6
-0.110, -8.458e-6, -2.589e-6
-0.100, -8.568e-6, -2.761e-6
-0.090, -8.754e-6, -2.936e-6
-0.080, -9.017e-6, -3.116e-6
-0.070, -9.506e-6, -3.306e-6
-0.060, -9.868e-6, -3.503e-6
-0.050, -9.519e-6, -3.694e-6
-0.040, -8.201e-6, -3.858e-6
-0.030, -6.391e-6, -3.986e-6
-0.020, -4.920e-6, -4.084e-6
-0.010, -3.918e-6, -4.162e-6
0.000, -3.292e-6, -4.228e-6
0.010, -2.870e-6, -4.286e-6
0.020, -2.535e-6, -4.336e-6
0.030, -2.276e-6, -4.382e-6
0.040, -2.055e-6, -4.423e-6
0.050, -1.877e-6, -4.461e-6
0.060, -1.753e-6, -4.496e-6
0.070, -1.674e-6, -4.529e-6
0.080, -1.619e-6, -4.561e-6
0.090, -1.581e-6, -4.593e-6
0.100, -1.548e-6, -4.624e-6
0.110, -1.506e-6, -4.654e-6
0.120, -1.466e-6, -4.683e-6
0.130, -1.449e-6, -4.712e-6
0.140, -1.449e-6, -4.741e-6
0.150, -1.442e-6, -4.770e-6
0.160, -1.444e-6, -4.799e-6
0.170, -1.425e-6, -4.828e-6
0.180, -1.407e-6, -4.856e-6
0.190, -1.401e-6, -4.884e-6
0.200, -1.386e-6, -4.911e-6
0.210, -1.400e-6, -4.939e-6
0.220, -1.407e-6, -4.968e-6
0.230, -1.412e-6, -4.996e-6
0.240, -1.408e-6, -5.024e-6
0.250, -1.400e-6, -5.052e-6
0.260, -1.390e-6, -5.080e-6
0.270, -1.402e-6, -5.108e-6
0.280, -1.425e-6, -5.136e-6
0.290, -1.444e-6, -5.165e-6
0.300, -1.470e-6, -5.195e-6
0.310, -1.479e-6, -5.224e-6
0.320, -1.488e-6, -5.254e-6
0.330, -1.509e-6, -5.284e-6
0.340, -1.547e-6, -5.315e-6
0.350, -1.595e-6, -5.347e-6
0.360, -1.652e-6, -5.380e-6
0.370, -1.711e-6, -5.414e-6
0.380, -1.756e-6, -5.449e-6
0.390, -1.810e-6, -5.486e-6
0.400, -1.880e-6, -5.523e-6
0.410, -1.996e-6, -5.563e-6
0.420, -2.121e-6, -5.606e-6
0.430, -2.252e-6, -5.651e-6
0.440, -2.415e-6, -5.

Note: README.md
# 物理化学实验报告

本实验报告为北京大学化学与分子工程学院2023年物理化学实验课程实验报告。

这门课，不值得你付出任何时间。

## 免责声明

笔者在该课程得分并不高，请仅做参考，数据作图等步骤还是需要自行完成，如判定抄袭，就会很惨（（（（

此外实验报告包含很多个人信息，请勿开盒，谢谢！

## 致谢

本实验报告参考模板：https://github.com/tansongchen/pkupcl

本实验报告也同时参考了很多同学和学长，在此一并感谢：

@Zanthoxylum https://github.com/Zanthoxylum/22Fall_PCL_reports 

@Halogendance

@Berylium

etc.

File: oxide_.txt
Nov. 2, 2023   13:02:28
Cyclic Voltammetry
File: c:\users\dell\desktop\电化学数据\114514\oxide_.txt
Data Source:  Experiment
Instrument Model:  CHI600B
Header:
Note:

Init E (V) = -0.25
High E (V) = 1.25
Low E (V) = -0.3
Init P/N = P
Scan Rate (V/s) = 0.1
Segment = 8
Sample Interval (V) = 0.01
Quiet Time (sec) = 1
Sensitivity (A/V) = 1e-5

Segment 1:
Segment 2:
Ep = 0.360V
ip = 1.490e-5A
Ah = 1.114e-5C

Segment 3:
Segment 4:
Ep = 0.370V
ip = 1.398e-5A
Ah = 1.003e-5C

Segment 5:
Segment 6:
Ep = 0.370V
ip = 1.403e-5A
Ah = 1.050e-5C

Ep = -0.090V
ip = 9.997e-7A
Ah = 5.043e-7C

Segment 7:
Segment 8:
Ep = 0.380V
ip = 1.416e-5A
Ah = 9.275e-6C

Ep = -0.090V
ip = 1.153e-6A
Ah = 6.053e-7C

Potential/V, Current/A, Charge/C

Segment 1:
-0.240, 8.061e-6, 8.061e-7
-0.230, 7.669e-6, 1.573e-6
-0.220, 7.342e-6, 2.307e-6
-0.210, 7.138e-6, 3.021e-6
-0.200, 7.001e-6, 3.721e-6
-0.190, 6.913e-6, 4.412e-6
-0.180, 6.876e-6, 5.100e-6
-0.170, 6.813e-6, 5.781e-6
-0.160, 6.760e-6, 6.457e-6
-0.150, 6.667e-6, 7.124e-6
-0.140, 6.556e-6, 7.780e-6
-0.130, 6.436e-6, 8.423e-6
-0.120, 6.319e-6, 9.055e-6
-0.110, 6.193e-6, 9.675e-6
-0.100, 6.083e-6, 1.028e-5
-0.090, 5.977e-6, 1.088e-5
-0.080, 5.930e-6, 1.147e-5
-0.070, 5.941e-6, 1.207e-5
-0.060, 6.067e-6, 1.267e-5
-0.050, 6.254e-6, 1.330e-5
-0.040, 6.480e-6, 1.395e-5
-0.030, 6.642e-6, 1.461e-5
-0.020, 6.750e-6, 1.529e-5
-0.010, 6.817e-6, 1.597e-5
0.000, 6.854e-6, 1.665e-5
0.010, 6.870e-6, 1.734e-5
0.020, 6.870e-6, 1.803e-5
0.030, 6.859e-6, 1.871e-5
0.040, 6.828e-6, 1.940e-5
0.050, 6.817e-6, 2.008e-5
0.060, 6.776e-6, 2.076e-5
0.070, 6.732e-6, 2.143e-5
0.080, 6.682e-6, 2.210e-5
0.090, 6.642e-6, 2.276e-5
0.100, 6.596e-6, 2.342e-5
0.110, 6.555e-6, 2.408e-5
0.120, 6.506e-6, 2.473e-5
0.130, 6.470e-6, 2.537e-5
0.140, 6.428e-6, 2.602e-5
0.150, 6.385e-6, 2.666e-5
0.160, 6.331e-6, 2.729e-5
0.170, 6.278e-6, 2.792e-5
0.180, 6.230e-6, 2.854e-5
0.190, 6.182e-6, 2.916e-5
0.200, 6.134e-6, 2.977e-5
0.210, 6.083e-6, 3.038e-5
0.220, 6.042e-6, 3.098e-5
0.230, 5.995e-6, 3.158e-5
0.240, 5.943e-6, 3.218e-5
0.250, 5.887e-6, 3.277e-5
0.260, 5.829e-6, 3.335e-5
0.270, 5.761e-6, 3.393e-5
0.280, 5.698e-6, 3.450e-5
0.290, 5.632e-6, 3.506e-5
0.300, 5.561e-6, 3.561e-5
0.310, 5.500e-6, 3.616e-5
0.320, 5.425e-6, 3.671e-5
0.330, 5.342e-6, 3.724e-5
0.340, 5.252e-6, 3.777e-5
0.350, 5.156e-6, 3.828e-5
0.360, 5.043e-6, 3.879e-5
0.370, 4.924e-6, 3.928e-5
0.380, 4.800e-6, 3.976e-5
0.390, 4.663e-6, 4.022e-5
0.400, 4.521e-6, 4.068e-5
0.410, 4.356e-6, 4.111e-5
0.420, 4.161e-6, 4.153e-5
0.430, 3.949e-6, 4.192e-5
0.440, 3.745e-6, 4.230e-5
0.450, 3.504e-6, 4.265e-5
0.460, 3.237e-6, 4.297e-5
0.470, 2.953e-6, 4.327e-5
0.480, 2.638e-6, 4.353e-5
0.490, 2.296e-6, 4.376e-5
0.500, 1.919e-6, 4.395e-5
0.510, 1.522e-6, 4.410e-5
0.520, 1.104e-6, 4.422e-5
0.530, 7.101e-7, 4.429e-5
0.540, 3.415e-7, 4.432e-5
0.550, -3.572e-9, 4.432e-5
0.560, -3.952e-7, 4.428e-5
0.570, -6.933e-7, 4.421e-5
0.580, -9.481e-7, 4.412e-5
0.590, -1.167e-6, 4.400e-5
0.600, -1.359e-6, 4.386e-5
0.610, -1.521e-6, 4.371e-5
0.620, -1.653e-6, 4.355e-5
0.630, -1.763e-6, 4.337e-5
0.640, -1.847e-6, 4.319e-5
0.650, -1.934e-6, 4.299e-5
0.660, -1.997e-6, 4.279e-5
0.670, -2.048e-6, 4.259e-5
0.680, -2.087e-6, 4.238e-5
0.690, -2.119e-6, 4.217e-5
0.700, -2.152e-6, 4.195e-5
0.710, -2.174e-6, 4.173e-5
0.720, -2.203e-6, 4.151e-5
0.730, -2.223e-6, 4.129e-5
0.740, -2.238e-6, 4.107e-5
0.750, -2.261e-6, 4.084e-5
0.760, -2.285e-6, 4.061e-5
0.770, -2.307e-6, 4.038e-5
0.780, -2.330e-6, 4.015e-5
0.790, -2.353e-6, 3.991e-5
0.800, -2.375e-6, 3.968e-5
0.810, -2.404e-6, 3.944e-5
0.820, -2.426e-6, 3.919e-5
0.830, -2.461e-6, 3.895e-5
0.840, -2.499e-6, 3.870e-5
0.850, -2.534e-6, 3.844e-5
0.860, -2.566e-6, 3.819e-5
0.870, -2.605e-6, 3.793e-5
0.880, -2.643e-6, 3.766e-5
0.890, -2.681e-6, 3.740e-5
0.900, -2.718e-6, 3.712e-5
0.910, -2.752e-6, 3.685e-5
0.920, -2.791e-6, 3.657e-5
0.930, -2.825e-6, 3.629e-5
0.940, -2.851e-6, 3.600e-5
0.950, -2.886e-6, 3.571e-5
0.960, -2.916e-6, 3.542e-5
0.970, -2.943e-6, 3.513e-5
0.980, -2.968e-6, 3.483e-5
0.990, -2.992e-6, 3.453e-5
1.000, -3.010e-6, 3.423e-5
1.010, -3.037e-6, 3.393e-5
1.020, -3.057e-6, 3.362e-5
1.030, -3.083e-6, 3.331e-5
1.040, -3.094e-6, 3.300e-5
1.050, -3.111e-6, 3.269e-5
1.060, -3.134e-6, 3.238e-5
1.070, -3.140e-6, 3.206e-5
1.080, -3.157e-6, 3.175e-5
1.090, -3.181e-6, 3.143e-5
1.100, -3.190e-6, 3.111e-5
1.110, -3.218e-6, 3.079e-5
1.120, -3.238e-6, 3.047e-5
1.130, -3.271e-6, 3.014e-5
1.140, -3.299e-6, 2.981e-5
1.150, -3.337e-6, 2.947e-5
1.160, -3.383e-6, 2.914e-5
1.170, -3.438e-6, 2.879e-5
1.180, -3.511e-6, 2.844e-5
1.190, -3.593e-6, 2.808e-5
1.200, -3.690e-6, 2.771e-5
1.210, -3.803e-6, 2.733e-5
1.220, -3.943e-6, 2.694e-5
1.230, -4.109e-6, 2.653e-5
1.240, -4.317e-6, 2.610e-5

Segment 2:
1.250, -3.734e-6, 2.572e-5
1.240, -2.662e-6, 2.546e-5
1.230, -2.014e-6, 2.526e-5
1.220, -1.570e-6, 2.510e-5
1.210, -1.271e-6, 2.497e-5
1.200, -1.046e-6, 2.487e-5
1.190, -8.790e-7, 2.478e-5
1.180, -7.534e-7, 2.470e-5
1.170, -6.529e-7, 2.464e-5
1.160, -5.770e-7, 2.458e-5
1.150, -5.110e-7, 2.453e-5
1.140, -4.556e-7, 2.448e-5
1.130, -4.104e-7, 2.444e-5
1.120, -3.784e-7, 2.440e-5
1.110, -3.370e-7, 2.437e-5
1.100, -2.386e-7, 2.435e-5
1.090, -1.960e-7, 2.433e-5
1.080, -1.672e-7, 2.431e-5
1.070, -1.524e-7, 2.430e-5
1.060, -1.252e-7, 2.428e-5
1.050, -1.106e-7, 2.427e-5
1.040, -9.442e-8, 2.426e-5
1.030, -7.350e-8, 2.426e-5
1.020, -6.087e-8, 2.425e-5
1.010, -4.650e-8, 2.424e-5
1.000, -2.531e-8, 2.424e-5
0.990, -1.247e-8, 2.424e-5
0.980, 1.592e-9, 2.424e-5
0.970, 2.240e-8, 2.424e-5
0.960, 3.307e-8, 2.425e-5
0.950, 3.828e-8, 2.425e-5
0.940, 5.483e-8, 2.426e-5
0.930, 7.450e-8, 2.426e-5
0.920, 8.450e-8, 2.427e-5
0.910, 9.741e-8, 2.428e-5
0.900, 1.166e-7, 2.429e-5
0.890, 1.285e-7, 2.431e-5
0.880, 1.383e-7, 2.432e-5
0.870, 1.586e-7, 2.434e-5
0.860, 1.768e-7, 2.435e-5
0.850, 1.856e-7, 2.437e-5
0.840, 2.048e-7, 2.439e-5
0.830, 2.261e-7, 2.441e-5
0.820, 2.348e-7, 2.444e-5
0.810, 2.585e-7, 2.446e-5
0.800, 2.778e-7, 2.449e-5
0.790, 2.954e-7, 2.452e-5
0.780, 3.232e-7, 2.455e-5
0.770, 3.369e-7, 2.459e-5
0.760, 3.678e-7, 2.462e-5
0.750, 3.861e-7, 2.466e-5
0.740, 4.186e-7, 2.470e-5
0.730, 4.400e-7, 2.475e-5
0.720, 4.744e-7, 2.480e-5
0.710, 5.044e-7, 2.485e-5
0.700, 5.370e-7, 2.490e-5
0.690, 5.755e-7, 2.496e-5
0.680, 6.168e-7, 2.502e-5
0.670, 6.577e-7, 2.509e-5
0.660, 7.055e-7, 2.516e-5
0.650, 7.536e-7, 2.523e-5
0.640, 8.041e-7, 2.531e-5
0.630, 8.649e-7, 2.540e-5
0.620, 9.281e-7, 2.549e-5
0.610, 9.963e-7, 2.559e-5
0.600, 1.078e-6, 2.570e-5
0.590, 1.163e-6, 2.581e-5
0.580, 1.275e-6, 2.594e-5
0.570, 1.382e-6, 2.608e-5
0.560, 1.502e-6, 2.623e-5
0.550, 1.642e-6, 2.639e-5
0.540, 1.796e-6, 2.657e-5
0.530, 1.980e-6, 2.677e-5
0.520, 2.202e-6, 2.699e-5
0.510, 2.457e-6, 2.724e-5
0.500, 2.772e-6, 2.752e-5
0.490, 3.152e-6, 2.783e-5
0.480, 3.635e-6, 2.819e-5
0.470, 4.262e-6, 2.862e-5
0.460, 5.068e-6, 2.913e-5
0.450, 6.084e-6, 2.974e-5
0.440, 7.359e-6, 3.047e-5
0.430, 8.894e-6, 3.136e-5
0.420, 1.065e-5, 3.243e-5
0.410, 1.251e-5, 3.368e-5
0.400, 1.434e-5, 3.511e-5
0.390, 1.594e-5, 3.671e-5
0.380, 1.714e-5, 3.842e-5
0.370, 1.785e-5, 4.020e-5
0.360, 1.804e-5, 4.201e-5
0.350, 1.779e-5, 4.379e-5
0.340, 1.722e-5, 4.551e-5
0.330, 1.644e-5, 4.715e-5
0.320, 1.560e-5, 4.871e-5
0.310, 1.475e-5, 5.019e-5
0.300, 1.395e-5, 5.158e-5
0.290, 1.320e-5, 5.290e-5
0.280, 1.253e-5, 5.416e-5
0.270, 1.195e-5, 5.535e-5
[...]
1.080, -1.572e-7, 2.630e-4
1.070, -1.339e-7, 2.630e-4
1.060, -1.132e-7, 2.630e-4
1.050, -1.023e-7, 2.630e-4
1.040, -8.195e-8, 2.630e-4
1.030, -6.530e-8, 2.630e-4
1.020, -5.654e-8, 2.630e-4
1.010, -3.674e-8, 2.630e-4
1.000, -1.910e-8, 2.630e-4
0.990, -9.766e-9, 2.630e-4
0.980, 8.071e-9, 2.630e-4
0.970, 2.686e-8, 2.630e-4
0.960, 3.431e-8, 2.630e-4
0.950, 3.984e-8, 2.630e-4
0.940, 5.851e-8, 2.630e-4
0.930, 7.782e-8, 2.630e-4
0.920, 8.534e-8, 2.630e-4
0.910, 9.994e-8, 2.630e-4
0.900, 1.171e-7, 2.630e-4
0.890, 1.300e-7, 2.631e-4
0.880, 1.399e-7, 2.631e-4
0.870, 1.590e-7, 2.631e-4
0.860, 1.775e-7, 2.631e-4
0.850, 1.863e-7, 2.631e-4
0.840, 2.064e-7, 2.631e-4
0.830, 2.265e-7, 2.632e-4
0.820, 2.359e-7, 2.632e-4
0.810, 2.596e-7, 2.632e-4
0.800, 2.781e-7, 2.632e-4
0.790, 2.981e-7, 2.633e-4
0.780, 3.237e-7, 2.633e-4
0.770, 3.387e-7, 2.633e-4
0.760, 3.687e-7, 2.634e-4
0.750, 3.881e-7, 2.634e-4
0.740, 4.202e-7, 2.635e-4
0.730, 4.444e-7, 2.635e-4
0.720, 4.752e-7, 2.635e-4
0.710, 5.104e-7, 2.636e-4
0.700, 5.435e-7, 2.637e-4
0.690, 5.800e-7, 2.637e-4
0.680, 6.204e-7, 2.638e-4
0.670, 6.658e-7, 2.638e-4
0.660, 7.119e-7, 2.639e-4
0.650, 7.621e-7, 2.640e-4
0.640, 8.145e-7, 2.641e-4
0.630, 8.788e-7, 2.642e-4
0.620, 9.435e-7, 2.643e-4
0.610, 1.015e-6, 2.644e-4
0.600, 1.099e-6, 2.645e-4
0.590, 1.194e-6, 2.646e-4
0.580, 1.305e-6, 2.647e-4
0.570, 1.418e-6, 2.649e-4
0.560, 1.548e-6, 2.650e-4
0.550, 1.694e-6, 2.652e-4
0.540, 1.864e-6, 2.654e-4
0.530, 2.061e-6, 2.656e-4
0.520, 2.295e-6, 2.658e-4
0.510, 2.582e-6, 2.661e-4
0.500, 2.931e-6, 2.664e-4
0.490, 3.356e-6, 2.667e-4
0.480, 3.897e-6, 2.671e-4
0.470, 4.620e-6, 2.675e-4
0.460, 5.537e-6, 2.681e-4
0.450, 6.706e-6, 2.688e-4
0.440, 8.168e-6, 2.696e-4
0.430, 9.861e-6, 2.706e-4
0.420, 1.172e-5, 2.717e-4
0.410, 1.353e-5, 2.731e-4
0.400, 1.511e-5, 2.746e-4
0.390, 1.623e-5, 2.762e-4
0.380, 1.679e-5, 2.779e-4
0.370, 1.678e-5, 2.796e-4
0.360, 1.628e-5, 2.812e-4
0.350, 1.548e-5, 2.828e-4
0.340, 1.453e-5, 2.842e-4
0.330, 1.354e-5, 2.856e-4
0.320, 1.261e-5, 2.868e-4
0.310, 1.179e-5, 2.880e-4
0.300, 1.107e-5, 2.891e-4
0.290, 1.043e-5, 2.902e-4
0.280, 9.879e-6, 2.911e-4
0.270, 9.412e-6, 2.921e-4
0.260, 9.012e-6, 2.930e-4
0.250, 8.659e-6, 2.939e-4
0.240, 8.353e-6, 2.947e-4
0.230, 8.087e-6, 2.955e-4
0.220, 7.853e-6, 2.963e-4
0.210, 7.636e-6, 2.970e-4
0.200, 7.435e-6, 2.978e-4
0.190, 7.259e-6, 2.985e-4
0.180, 7.103e-6, 2.992e-4
0.170, 6.961e-6, 2.999e-4
0.160, 6.836e-6, 3.006e-4
0.150, 6.723e-6, 3.013e-4
0.140, 6.626e-6, 3.019e-4
0.130, 6.533e-6, 3.026e-4
0.120, 6.450e-6, 3.032e-4
0.110, 6.371e-6, 3.039e-4
0.100, 6.303e-6, 3.045e-4
0.090, 6.240e-6, 3.051e-4
0.080, 6.179e-6, 3.057e-4
0.070, 6.122e-6, 3.064e-4
0.060, 6.087e-6, 3.070e-4
0.050, 6.050e-6, 3.076e-4
0.040, 6.025e-6, 3.082e-4
0.030, 6.005e-6, 3.088e-4
0.020, 6.000e-6, 3.094e-4
0.010, 6.008e-6, 3.100e-4
0.000, 6.029e-6, 3.106e-4
-0.010, 6.081e-6, 3.112e-4
-0.020, 6.156e-6, 3.118e-4
-0.030, 6.300e-6, 3.124e-4
-0.040, 6.475e-6, 3.131e-4
-0.050, 6.722e-6, 3.138e-4
-0.060, 6.943e-6, 3.144e-4
-0.070, 7.087e-6, 3.152e-4
-0.080, 7.154e-6, 3.159e-4
-0.090, 7.163e-6, 3.166e-4
-0.100, 7.144e-6, 3.173e-4
-0.110, 7.102e-6, 3.180e-4
-0.120, 7.056e-6, 3.187e-4
-0.130, 7.010e-6, 3.194e-4
-0.140, 7.009e-6, 3.201e-4
-0.150, 7.054e-6, 3.208e-4
-0.160, 7.151e-6, 3.215e-4
-0.170, 7.302e-6, 3.223e-4
-0.180, 7.526e-6, 3.230e-4
-0.190, 7.806e-6, 3.238e-4
-0.200, 8.096e-6, 3.246e-4
-0.210, 8.331e-6, 3.254e-4
-0.220, 8.547e-6, 3.263e-4
-0.230, 8.691e-6, 3.272e-4
-0.240, 8.774e-6, 3.280e-4
-0.250, 8.767e-6, 3.289e-4
-0.260, 8.728e-6, 3.298e-4
-0.270, 8.703e-6, 3.307e-4
-0.280, 8.693e-6, 3.315e-4
-0.290, 8.808e-6, 3.324e-4
-0.300, 5.194e-6, 3.329e-4