Folder: Physical-Chemistry-Experiment/循环伏安/analysis/114514 (part 2)

File: oxide_air.txt
Nov. 2, 2023   12:59:10
Cyclic Voltammetry
File: c:\users\dell\desktop\电化学数据\114514\oxide_air.txt
Data Source:  Experiment
Instrument Model:  CHI600B
Header:
Note:

Init E (V) = -0.25
High E (V) = 1.25
Low E (V) = -0.3
Init P/N = P
Scan Rate (V/s) = 0.1
Segment = 8
Sample Interval (V) = 0.01
Quiet Time (sec) = 1
Sensitivity (A/V) = 1e-5

Segment 1:
Segment 2:
Ep = -0.060V
ip = 6.650e-6A
Ah = 2.280e-6C

Segment 3:
Segment 4:
Ep = 0.290V
ip = 1.842e-5A
Ah = 2.483e-5C

Segment 5:
Segment 6:
Ep = 0.340V
ip = 1.729e-5A
Ah = 1.600e-5C

Segment 7:
Segment 8:
Ep = 0.350V
ip = 1.872e-5A
Ah = 1.468e-5C

Ep = -0.180V
ip = 6.035e-6A
Ah = 1.662e-6C

Potential/V, Current/A, Charge/C

Segment 1:
-0.240, 2.316e-5, 2.316e-6
-0.230, 2.165e-5, 4.482e-6
-0.220, 2.534e-5, 7.016e-6
-0.210, 2.440e-5, 9.456e-6
-0.200, 2.255e-5, 1.171e-5
-0.190, 2.204e-5, 1.391e-5
-0.180, 2.212e-5, 1.613e-5
-0.170, 2.042e-5, 1.817e-5
-0.160, 1.991e-5, 2.016e-5
-0.150, 1.990e-5, 2.215e-5
-0.140, 2.100e-5, 2.425e-5
-0.130, 2.152e-5, 2.640e-5
-0.120, 2.187e-5, 2.859e-5
-0.110, 2.173e-5, 3.076e-5
-0.100, 2.262e-5, 3.302e-5
-0.090, 2.179e-5, 3.520e-5
-0.080, 2.116e-5, 3.732e-5
-0.070, 2.225e-5, 3.954e-5
-0.060, 2.426e-5, 4.197e-5
-0.050, 2.480e-5, 4.445e-5
-0.040, 2.407e-5, 4.686e-5
-0.030, 2.479e-5, 4.934e-5
-0.020, 2.544e-5, 5.188e-5
-0.010, 2.504e-5, 5.438e-5
0.000, 2.554e-5, 5.694e-5
0.010, 2.599e-5, 5.954e-5
0.020, 2.698e-5, 6.223e-5
0.030, 2.844e-5, 6.508e-5
0.040, 2.581e-5, 6.766e-5
0.050, 2.395e-5, 7.005e-5
0.060, 2.428e-5, 7.248e-5
0.070, 2.549e-5, 7.503e-5
0.080, 2.575e-5, 7.761e-5
0.090, 2.645e-5, 8.025e-5
0.100, 2.537e-5, 8.279e-5
0.110, 2.395e-5, 8.518e-5
0.120, 2.383e-5, 8.757e-5
0.130, 2.475e-5, 9.004e-5
0.140, 2.336e-5, 9.238e-5
0.150, 2.047e-5, 9.443e-5
0.160, 1.934e-5, 9.636e-5
0.170, 1.899e-5, 9.826e-5
0.180, 2.071e-5, 1.003e-4
0.190, 2.198e-5, 1.025e-4
0.200, 2.291e-5, 1.048e-4
0.210, 2.388e-5, 1.072e-4
0.220, 2.209e-5, 1.094e-4
0.230, 2.150e-5, 1.116e-4
0.240, 2.364e-5, 1.139e-4
0.250, 2.568e-5, 1.165e-4
0.260, 2.536e-5, 1.190e-4
0.270, 2.535e-5, 1.216e-4
0.280, 2.210e-5, 1.238e-4
0.290, 1.993e-5, 1.258e-4
0.300, 1.945e-5, 1.277e-4
0.310, 2.043e-5, 1.298e-4
0.320, 2.120e-5, 1.319e-4
0.330, 2.023e-5, 1.339e-4
0.340, 1.922e-5, 1.358e-4
0.350, 1.865e-5, 1.377e-4
0.360, 1.914e-5, 1.396e-4
0.370, 1.797e-5, 1.414e-4
0.380, 1.626e-5, 1.430e-4
0.390, 1.484e-5, 1.445e-4
0.400, 1.358e-5, 1.459e-4
0.410, 1.279e-5, 1.471e-4
0.420, 1.217e-5, 1.484e-4
0.430, 1.215e-5, 1.496e-4
0.440, 1.261e-5, 1.508e-4
0.450, 1.249e-5, 1.521e-4
0.460, 1.169e-5, 1.533e-4
0.470, 1.030e-5, 1.543e-4
0.480, 9.318e-6, 1.552e-4
0.490, 8.350e-6, 1.561e-4
0.500, 7.174e-6, 1.568e-4
0.510, 5.958e-6, 1.574e-4
0.520, 4.943e-6, 1.579e-4
0.530, 3.943e-6, 1.583e-4
0.540, 2.979e-6, 1.586e-4
0.550, 2.121e-6, 1.588e-4
0.560, 1.380e-6, 1.589e-4
0.570, 7.305e-7, 1.590e-4
0.580, 1.651e-7, 1.590e-4
0.590, -3.738e-7, 1.590e-4
0.600, -7.834e-7, 1.589e-4
0.610, -1.086e-6, 1.588e-4
0.620, -1.326e-6, 1.586e-4
0.630, -1.519e-6, 1.585e-4
0.640, -1.664e-6, 1.583e-4
0.650, -1.785e-6, 1.581e-4
0.660, -1.875e-6, 1.580e-4
0.670, -1.960e-6, 1.578e-4
0.680, -2.015e-6, 1.576e-4
0.690, -2.052e-6, 1.573e-4
0.700, -2.093e-6, 1.571e-4
0.710, -2.127e-6, 1.569e-4
0.720, -2.157e-6, 1.567e-4
0.730, -2.180e-6, 1.565e-4
0.740, -2.205e-6, 1.563e-4
0.750, -2.221e-6, 1.561e-4
0.760, -2.248e-6, 1.558e-4
0.770, -2.274e-6, 1.556e-4
0.780, -2.304e-6, 1.554e-4
0.790, -2.326e-6, 1.551e-4
0.800, -2.356e-6, 1.549e-4
0.810, -2.387e-6, 1.547e-4
0.820, -2.417e-6, 1.544e-4
0.830, -2.456e-6, 1.542e-4
0.840, -2.496e-6, 1.539e-4
0.850, -2.535e-6, 1.537e-4
0.860, -2.572e-6, 1.534e-4
0.870, -2.612e-6, 1.532e-4
0.880, -2.658e-6, 1.529e-4
0.890, -2.703e-6, 1.526e-4
0.900, -2.746e-6, 1.523e-4
0.910, -2.790e-6, 1.521e-4
0.920, -2.832e-6, 1.518e-4
0.930, -2.876e-6, 1.515e-4
0.940, -2.917e-6, 1.512e-4
0.950, -2.950e-6, 1.509e-4
0.960, -2.991e-6, 1.506e-4
0.970, -3.030e-6, 1.503e-4
0.980, -3.063e-6, 1.500e-4
0.990, -3.097e-6, 1.497e-4
1.000, -3.133e-6, 1.494e-4
1.010, -3.159e-6, 1.491e-4
1.020, -3.192e-6, 1.487e-4
1.030, -3.223e-6, 1.484e-4
1.040, -3.240e-6, 1.481e-4
1.050, -3.268e-6, 1.478e-4
1.060, -3.288e-6, 1.474e-4
1.070, -3.316e-6, 1.471e-4
1.080, -3.334e-6, 1.468e-4
1.090, -3.355e-6, 1.464e-4
1.100, -3.379e-6, 1.461e-4
1.110, -3.395e-6, 1.458e-4
1.120, -3.427e-6, 1.454e-4
1.130, -3.453e-6, 1.451e-4
1.140, -3.488e-6, 1.447e-4
1.150, -3.529e-6, 1.444e-4
1.160, -3.573e-6, 1.440e-4
1.170, -3.626e-6, 1.437e-4
1.180, -3.693e-6, 1.433e-4
1.190, -3.766e-6, 1.429e-4
1.200, -3.858e-6, 1.425e-4
1.210, -3.968e-6, 1.421e-4
1.220, -4.103e-6, 1.417e-4
1.230, -4.260e-6, 1.413e-4
1.240, -4.458e-6, 1.408e-4

Segment 2:
1.250, -3.865e-6, 1.405e-4
1.240, -2.765e-6, 1.402e-4
1.230, -2.097e-6, 1.400e-4
1.220, -1.635e-6, 1.398e-4
1.210, -1.324e-6, 1.397e-4
1.200, -1.092e-6, 1.396e-4
1.190, -9.189e-7, 1.395e-4
1.180, -7.855e-7, 1.394e-4
1.170, -6.788e-7, 1.393e-4
1.160, -5.984e-7, 1.393e-4
1.150, -5.316e-7, 1.392e-4
1.140, -4.750e-7, 1.392e-4
1.130, -4.276e-7, 1.391e-4
1.120, -3.942e-7, 1.391e-4
1.110, -3.546e-7, 1.390e-4
1.100, -2.666e-7, 1.390e-4
1.090, -2.049e-7, 1.390e-4
1.080, -1.753e-7, 1.390e-4
1.070, -1.585e-7, 1.390e-4
1.060, -1.363e-7, 1.390e-4
1.050, -1.144e-7, 1.389e-4
1.040, -1.007e-7, 1.389e-4
1.030, -7.552e-8, 1.389e-4
1.020, -6.422e-8, 1.389e-4
1.010, -5.483e-8, 1.389e-4
1.000, -3.295e-8, 1.389e-4
0.990, -1.547e-8, 1.389e-4
0.980, -6.676e-9, 1.389e-4
0.970, 1.251e-8, 1.389e-4
0.960, 3.179e-8, 1.389e-4
0.950, 3.585e-8, 1.389e-4
0.940, 4.664e-8, 1.389e-4
0.930, 6.818e-8, 1.389e-4
0.920, 8.278e-8, 1.389e-4
0.910, 9.002e-8, 1.389e-4
0.900, 1.066e-7, 1.390e-4
0.890, 1.282e-7, 1.390e-4
0.880, 1.345e-7, 1.390e-4
0.870, 1.504e-7, 1.390e-4
0.860, 1.739e-7, 1.390e-4
0.850, 1.827e-7, 1.390e-4
0.840, 1.978e-7, 1.390e-4
0.830, 2.229e-7, 1.391e-4
0.820, 2.310e-7, 1.391e-4
0.810, 2.513e-7, 1.391e-4
0.800, 2.757e-7, 1.391e-4
0.790, 2.889e-7, 1.392e-4
0.780, 3.154e-7, 1.392e-4
0.770, 3.317e-7, 1.392e-4
0.760, 3.626e-7, 1.393e-4
0.750, 3.809e-7, 1.393e-4
0.740, 4.140e-7, 1.394e-4
0.730, 4.339e-7, 1.394e-4
0.720, 4.711e-7, 1.394e-4
0.710, 5.033e-7, 1.395e-4
0.700, 5.301e-7, 1.396e-4
0.690, 5.706e-7, 1.396e-4
0.680, 6.110e-7, 1.397e-4
0.670, 6.487e-7, 1.397e-4
0.660, 6.919e-7, 1.398e-4
0.650, 7.430e-7, 1.399e-4
0.640, 7.967e-7, 1.400e-4
0.630, 8.520e-7, 1.400e-4
0.620, 9.193e-7, 1.401e-4
0.610, 9.855e-7, 1.402e-4
0.600, 1.062e-6, 1.403e-4
0.590, 1.146e-6, 1.405e-4
0.580, 1.260e-6, 1.406e-4
0.570, 1.367e-6, 1.407e-4
0.560, 1.486e-6, 1.409e-4
0.550, 1.624e-6, 1.410e-4
0.540, 1.778e-6, 1.412e-4
0.530, 1.961e-6, 1.414e-4
0.520, 2.174e-6, 1.416e-4
0.510, 2.434e-6, 1.419e-4
0.500, 2.746e-6, 1.421e-4
0.490, 3.123e-6, 1.424e-4
0.480, 3.602e-6, 1.428e-4
0.470, 4.219e-6, 1.432e-4
0.460, 5.013e-6, 1.437e-4
0.450, 6.002e-6, 1.443e-4
0.440, 7.235e-6, 1.451e-4
0.430, 8.726e-6, 1.459e-4
0.420, 1.044e-5, 1.470e-4
0.410, 1.231e-5, 1.482e-4
0.400, 1.433e-5, 1.496e-4
0.390, 1.621e-5, 1.513e-4
0.380, 1.769e-5, 1.530e-4
0.370, 1.857e-5, 1.549e-4
0.360, 1.918e-5, 1.568e-4
0.350, 1.986e-5, 1.588e-4
0.340, 2.067e-5, 1.609e-4
0.330, 2.172e-5, 1.630e-4
0.320, 2.235e-5, 1.653e-4
0.310, 2.389e-5, 1.677e-4
0.300, 2.425e-5, 1.701e-4
0.290, 2.503e-5, 1.726e-4
0.280, 2.446e-5, 1.750e-4
0.270, 2.342e-5, 1.774e-4
0.260, 2.321e-5, 1.797e-4
0.250, 2.287e-5, 1.820e-4
[...]
1.080, -1.723e-7, 1.100e-3
1.070, -1.583e-7, 1.100e-3
1.060, -1.366e-7, 1.100e-3
1.050, -1.144e-7, 1.100e-3
1.040, -1.061e-7, 1.099e-3
1.030, -8.125e-8, 1.099e-3
1.020, -6.436e-8, 1.099e-3
1.010, -5.727e-8, 1.099e-3
1.000, -3.775e-8, 1.099e-3
0.990, -1.776e-8, 1.099e-3
0.980, -8.116e-9, 1.099e-3
0.970, 8.302e-9, 1.099e-3
0.960, 2.758e-8, 1.099e-3
0.950, 3.487e-8, 1.099e-3
0.940, 4.223e-8, 1.099e-3
0.930, 6.087e-8, 1.099e-3
0.920, 7.922e-8, 1.099e-3
0.910, 8.895e-8, 1.100e-3
0.900, 9.951e-8, 1.100e-3
0.890, 1.211e-7, 1.100e-3
0.880, 1.330e-7, 1.100e-3
0.870, 1.443e-7, 1.100e-3
0.860, 1.680e-7, 1.100e-3
0.850, 1.811e-7, 1.100e-3
0.840, 1.933e-7, 1.100e-3
0.830, 2.177e-7, 1.100e-3
0.820, 2.304e-7, 1.100e-3
0.810, 2.469e-7, 1.100e-3
0.800, 2.722e-7, 1.100e-3
0.790, 2.894e-7, 1.100e-3
0.780, 3.156e-7, 1.100e-3
0.770, 3.314e-7, 1.100e-3
0.760, 3.597e-7, 1.100e-3
0.750, 3.807e-7, 1.100e-3
0.740, 4.119e-7, 1.100e-3
0.730, 4.345e-7, 1.100e-3
0.720, 4.695e-7, 1.100e-3
0.710, 5.019e-7, 1.100e-3
0.700, 5.340e-7, 1.100e-3
0.690, 5.721e-7, 1.100e-3
0.680, 6.145e-7, 1.100e-3
0.670, 6.556e-7, 1.100e-3
0.660, 7.032e-7, 1.100e-3
0.650, 7.520e-7, 1.100e-3
0.640, 8.052e-7, 1.101e-3
0.630, 8.665e-7, 1.101e-3
0.620, 9.314e-7, 1.101e-3
0.610, 1.001e-6, 1.101e-3
0.600, 1.084e-6, 1.101e-3
0.590, 1.173e-6, 1.101e-3
0.580, 1.286e-6, 1.101e-3
0.570, 1.398e-6, 1.101e-3
0.560, 1.524e-6, 1.101e-3
0.550, 1.668e-6, 1.102e-3
0.540, 1.832e-6, 1.102e-3
0.530, 2.030e-6, 1.102e-3
0.520, 2.257e-6, 1.102e-3
0.510, 2.535e-6, 1.102e-3
0.500, 2.878e-6, 1.103e-3
0.490, 3.298e-6, 1.103e-3
0.480, 3.838e-6, 1.103e-3
0.470, 4.556e-6, 1.104e-3
0.460, 5.473e-6, 1.104e-3
0.450, 6.647e-6, 1.105e-3
0.440, 8.135e-6, 1.106e-3
0.430, 9.904e-6, 1.107e-3
0.420, 1.193e-5, 1.108e-3
0.410, 1.407e-5, 1.110e-3
0.400, 1.619e-5, 1.111e-3
0.390, 1.823e-5, 1.113e-3
0.380, 1.996e-5, 1.115e-3
0.370, 2.125e-5, 1.117e-3
0.360, 2.175e-5, 1.119e-3
0.350, 2.228e-5, 1.122e-3
0.340, 2.222e-5, 1.124e-3
0.330, 2.148e-5, 1.126e-3
0.320, 2.184e-5, 1.128e-3
0.310, 2.161e-5, 1.130e-3
0.300, 2.085e-5, 1.132e-3
0.290, 1.940e-5, 1.134e-3
0.280, 2.025e-5, 1.136e-3
0.270, 2.251e-5, 1.139e-3
0.260, 2.359e-5, 1.141e-3
0.250, 2.474e-5, 1.143e-3
0.240, 2.355e-5, 1.146e-3
0.230, 2.211e-5, 1.148e-3
0.220, 2.080e-5, 1.150e-3
0.210, 1.970e-5, 1.152e-3
0.200, 1.930e-5, 1.154e-3
0.190, 2.035e-5, 1.156e-3
0.180, 2.173e-5, 1.158e-3
0.170, 2.207e-5, 1.160e-3
0.160, 2.155e-5, 1.162e-3
0.150, 2.077e-5, 1.165e-3
0.140, 2.105e-5, 1.167e-3
0.130, 2.056e-5, 1.169e-3
0.120, 1.994e-5, 1.171e-3
0.110, 2.140e-5, 1.173e-3
0.100, 2.302e-5, 1.175e-3
0.090, 2.459e-5, 1.178e-3
0.080, 2.458e-5, 1.180e-3
0.070, 2.461e-5, 1.183e-3
0.060, 2.464e-5, 1.185e-3
0.050, 2.358e-5, 1.187e-3
0.040, 2.376e-5, 1.190e-3
0.030, 2.392e-5, 1.192e-3
0.020, 2.370e-5, 1.194e-3
0.010, 2.391e-5, 1.197e-3
0.000, 2.378e-5, 1.199e-3
-0.010, 2.225e-5, 1.201e-3
-0.020, 2.218e-5, 1.204e-3
-0.030, 2.212e-5, 1.206e-3
-0.040, 2.199e-5, 1.208e-3
-0.050, 2.085e-5, 1.210e-3
-0.060, 2.332e-5, 1.213e-3
-0.070, 2.367e-5, 1.215e-3
-0.080, 2.271e-5, 1.217e-3
-0.090, 2.124e-5, 1.219e-3
-0.100, 2.141e-5, 1.221e-3
-0.110, 2.206e-5, 1.224e-3
-0.120, 2.448e-5, 1.226e-3
-0.130, 2.556e-5, 1.229e-3
-0.140, 2.432e-5, 1.231e-3
-0.150, 2.312e-5, 1.233e-3
-0.160, 2.342e-5, 1.236e-3
-0.170, 2.530e-5, 1.238e-3
-0.180, 2.947e-5, 1.241e-3
-0.190, 2.840e-5, 1.244e-3
-0.200, 2.624e-5, 1.247e-3
-0.210, 2.425e-5, 1.249e-3
-0.220, 2.228e-5, 1.251e-3
-0.230, 2.213e-5, 1.254e-3
-0.240, 2.280e-5, 1.256e-3
-0.250, 2.568e-5, 1.258e-3
-0.260, 2.898e-5, 1.261e-3
-0.270, 2.878e-5, 1.264e-3
-0.280, 2.752e-5, 1.267e-3
-0.290, 2.598e-5, 1.270e-3
-0.300, 2.234e-5, 1.272e-3

File: oxide_LSV.txt
Nov. 2, 2023   13:20:10
Linear Sweep Voltammetry
File: c:\users\dell\desktop\电化学数据\114514\oxide_lsv.txt
Data Source:  Experiment
Instrument Model:  CHI600B
Header:
Note:

Init E (V) = 1.25
Final E (V) = -0.3
Scan Rate (V/s) = 0.01
Sample Interval (V) = 0.001
Quiet Time (sec) = 2
Sensitivity (A/V) = 1e-5

Ep = 0.346V
ip = 6.827e-6A
Ah = 4.496e-5C

Ep = -0.299V
ip = 3.338e-7A
Ah = 1.452e-5C

Potential/V, Current/A, Charge/C

Segment 1:
1.249, -5.074e-6, -5.074e-7
1.243, -1.737e-6, -1.956e-6
1.237, -1.204e-6, -2.789e-6
1.231, -9.486e-7, -3.416e-6
1.225, -7.949e-7, -3.928e-6
1.219, -6.930e-7, -4.366e-6
1.213, -6.010e-7, -4.748e-6
1.207, -5.503e-7, -5.092e-6
1.201, -5.007e-7, -5.402e-6
1.195, -4.536e-7, -5.685e-6
1.189, -4.173e-7, -5.948e-6
1.183, -4.035e-7, -6.192e-6
1.177, -3.707e-7, -6.425e-6
1.171, -3.551e-7, -6.639e-6
1.165, -3.256e-7, -6.846e-6
1.159, -2.300e-7, -7.005e-6
1.153, -2.091e-7, -7.133e-6
1.147, -2.031e-7, -7.257e-6
1.141, -1.886e-7, -7.374e-6
1.135, -1.690e-7, -7.480e-6
1.129, -1.610e-7, -7.578e-6
1.123, -1.601e-7, -7.674e-6
1.117, -1.589e-7, -7.770e-6
1.111, -1.537e-7, -7.864e-6
1.105, -1.413e-7, -7.952e-6
1.099, -1.271e-7, -8.031e-6
1.093, -1.169e-7, -8.103e-6
1.087, -1.127e-7, -8.172e-6
1.081, -1.115e-7, -8.239e-6
1.075, -1.109e-7, -8.306e-6
1.069, -1.098e-7, -8.372e-6
1.063, -1.072e-7, -8.437e-6
1.057, -1.026e-7, -8.500e-6
1.051, -9.620e-8, -8.560e-6
1.045, -8.868e-8, -8.616e-6
1.039, -8.101e-8, -8.667e-6
1.033, -7.433e-8, -8.714e-6
1.027, -6.924e-8, -8.757e-6
1.021, -6.600e-8, -8.797e-6
1.015, -6.411e-8, -8.836e-6
1.009, -6.313e-8, -8.875e-6
1.003, -6.268e-8, -8.912e-6
0.997, -6.243e-8, -8.950e-6
0.991, -6.206e-8, -8.987e-6
0.985, -6.143e-8, -9.024e-6
0.979, -6.038e-8, -9.061e-6
0.973, -5.832e-8, -9.096e-6
0.967, -5.504e-8, -9.130e-6
0.961, -5.057e-8, -9.161e-6
0.955, -4.525e-8, -9.190e-6
0.949, -3.845e-8, -9.214e-6
0.943, -3.168e-8, -9.235e-6
0.937, -2.661e-8, -9.252e-6
0.931, -2.212e-8, -9.266e-6
0.925, -1.830e-8, -9.278e-6
0.919, -1.619e-8, -9.288e-6
0.913, -1.492e-8, -9.297e-6
0.907, -1.423e-8, -9.306e-6
0.901, -1.380e-8, -9.314e-6
0.895, -1.347e-8, -9.323e-6
0.889, -1.313e-8, -9.331e-6
0.883, -1.247e-8, -9.338e-6
0.877, -1.174e-8, -9.345e-6
0.871, -1.014e-8, -9.352e-6
0.865, -8.036e-9, -9.357e-6
0.859, -4.926e-9, -9.361e-6
0.853, -5.805e-10, -9.362e-6
0.847, 3.904e-9, -9.360e-6
0.841, 9.543e-9, -9.356e-6
0.835, 1.491e-8, -9.348e-6
0.829, 2.009e-8, -9.337e-6
0.823, 2.459e-8, -9.323e-6
0.817, 2.842e-8, -9.307e-6
0.811, 3.099e-8, -9.289e-6
0.805, 3.281e-8, -9.269e-6
0.799, 3.393e-8, -9.249e-6
0.793, 3.447e-8, -9.229e-6
0.787, 3.491e-8, -9.208e-6
0.781, 3.510e-8, -9.187e-6
0.775, 3.522e-8, -9.166e-6
0.769, 3.534e-8, -9.144e-6
0.763, 3.553e-8, -9.123e-6
0.757, 3.607e-8, -9.102e-6
0.751, 3.711e-8, -9.080e-6
0.745, 3.908e-8, -9.057e-6
0.739, 4.215e-8, -9.032e-6
0.733, 4.760e-8, -9.005e-6
0.727, 5.484e-8, -8.974e-6
0.721, 6.279e-8, -8.938e-6
0.715, 7.033e-8, -8.898e-6
0.709, 7.589e-8, -8.854e-6
0.703, 8.034e-8, -8.806e-6
0.697, 8.248e-8, -8.757e-6
0.691, 8.337e-8, -8.707e-6
0.685, 8.400e-8, -8.657e-6
0.679, 8.459e-8, -8.606e-6
0.673, 8.573e-8, -8.555e-6
0.667, 8.789e-8, -8.503e-6
0.661, 9.266e-8, -8.449e-6
0.655, 1.000e-7, -8.392e-6
0.649, 1.085e-7, -8.329e-6
0.643, 1.174e-7, -8.262e-6
0.637, 1.250e-7, -8.189e-6
0.631, 1.300e-7, -8.112e-6
0.625, 1.321e-7, -8.034e-6
0.619, 1.328e-7, -7.954e-6
0.613, 1.335e-7, -7.874e-6
0.607, 1.360e-7, -7.794e-6
0.601, 1.445e-7, -7.709e-6
0.595, 1.599e-7, -7.617e-6
0.589, 1.740e-7, -7.516e-6
0.583, 1.804e-7, -7.408e-6
0.577, 1.818e-7, -7.300e-6
0.571, 1.838e-7, -7.190e-6
0.565, 1.949e-7, -7.076e-6
0.559, 2.177e-7, -6.951e-6
0.553, 2.293e-7, -6.816e-6
0.547, 2.307e-7, -6.678e-6
0.541, 2.364e-7, -6.538e-6
0.535, 2.653e-7, -6.387e-6
0.529, 2.791e-7, -6.221e-6
0.523, 2.880e-7, -6.052e-6
0.517, 3.215e-7, -5.868e-6
0.511, 3.296e-7, -5.672e-6
0.505, 3.717e-7, -5.461e-6
0.499, 3.871e-7, -5.233e-6
0.493, 4.261e-7, -4.983e-6
0.487, 4.745e-7, -4.711e-6
0.481, 5.234e-7, -4.410e-6
0.475, 5.794e-7, -4.076e-6
0.469, 6.679e-7, -3.697e-6
0.463, 7.647e-7, -3.268e-6
0.457, 8.736e-7, -2.773e-6
0.451, 1.017e-6, -2.197e-6
0.445, 1.227e-6, -1.516e-6
0.439, 1.456e-6, -7.010e-7
0.433, 1.741e-6, 2.708e-7
0.427, 2.089e-6, 1.434e-6
0.421, 2.504e-6, 2.829e-6
0.415, 2.993e-6, 4.500e-6
0.409, 3.546e-6, 6.488e-6
0.403, 4.145e-6, 8.824e-6
0.397, 4.779e-6, 1.153e-5
0.391, 5.380e-6, 1.461e-5
0.385, 5.919e-6, 1.804e-5
0.379, 6.374e-6, 2.175e-5
0.373, 6.734e-6, 2.571e-5
0.367, 6.992e-6, 2.984e-5
0.361, 7.161e-6, 3.410e-5
0.355, 7.253e-6, 3.843e-5
0.349, 7.268e-6, 4.279e-5
0.343, 7.265e-6, 4.715e-5
0.337, 7.257e-6, 5.151e-5
0.331, 7.212e-6, 5.584e-5
0.325, 7.163e-6, 6.015e-5
0.319, 7.114e-6, 6.442e-5
0.313, 7.066e-6, 6.867e-5
0.307, 7.017e-6, 7.289e-5
0.301, 6.969e-6, 7.709e-5
0.295, 6.925e-6, 8.126e-5
0.289, 6.895e-6, 8.540e-5
0.283, 6.869e-6, 8.953e-5
0.277, 6.824e-6, 9.363e-5
0.271, 6.800e-6, 9.772e-5
0.265, 6.773e-6, 1.018e-4
0.259, 6.729e-6, 1.058e-4
0.253, 6.718e-6, 1.099e-4
0.247, 6.677e-6, 1.139e-4
0.241, 6.653e-6, 1.179e-4
0.235, 6.627e-6, 1.219e-4
0.229, 6.589e-6, 1.258e-4
0.223, 6.572e-6, 1.298e-4
0.217, 6.530e-6, 1.337e-4
0.211, 6.498e-6, 1.376e-4
0.205, 6.480e-6, 1.415e-4
0.199, 6.433e-6, 1.454e-4
0.193, 6.395e-6, 1.492e-4
0.187, 6.373e-6, 1.531e-4
0.181, 6.333e-6, 1.569e-4
0.175, 6.285e-6, 1.606e-4
0.169, 6.237e-6, 1.644e-4
0.163, 6.191e-6, 1.681e-4
0.157, 6.146e-6, 1.718e-4
0.151, 6.097e-6, 1.755e-4
0.145, 6.064e-6, 1.792e-4
0.139, 6.002e-6, 1.828e-4
0.133, 5.945e-6, 1.864e-4
0.127, 5.894e-6, 1.899e-4
0.121, 5.840e-6, 1.934e-4
0.115, 5.758e-6, 1.969e-4
0.109, 5.698e-6, 2.003e-4
0.103, 5.615e-6, 2.037e-4
0.097, 5.550e-6, 2.071e-4
0.091, 5.456e-6, 2.104e-4
0.085, 5.362e-6, 2.136e-4
0.079, 5.281e-6, 2.168e-4
0.073, 5.188e-6, 2.199e-4
0.067, 5.096e-6, 2.230e-4
0.061, 5.013e-6, 2.260e-4
0.055, 4.919e-6, 2.290e-4
0.049, 4.839e-6, 2.319e-4
0.043, 4.768e-6, 2.348e-4
0.037, 4.678e-6, 2.376e-4
0.031, 4.625e-6, 2.404e-4
0.025, 4.576e-6, 2.432e-4
0.019, 4.527e-6, 2.459e-4
0.013, 4.503e-6, 2.486e-4
0.007, 4.479e-6, 2.513e-4
0.001, 4.476e-6, 2.540e-4
-0.005, 4.453e-6, 2.567e-4
-0.011, 4.448e-6, 2.594e-4
-0.017, 4.443e-6, 2.620e-4
-0.023, 4.436e-6, 2.647e-4
-0.029, 4.436e-6, 2.674e-4
-0.035, 4.446e-6, 2.700e-4
-0.041, 4.456e-6, 2.727e-4
-0.047, 4.463e-6, 2.754e-4
-0.053, 4.476e-6, 2.780e-4
-0.059, 4.478e-6, 2.807e-4
-0.065, 4.479e-6, 2.834e-4
-0.071, 4.479e-6, 2.861e-4
-0.077, 4.487e-6, 2.888e-4
-0.083, 4.512e-6, 2.915e-4
-0.089, 4.525e-6, 2.942e-4
-0.095, 4.527e-6, 2.969e-4
-0.101, 4.528e-6, 2.996e-4
-0.107, 4.528e-6, 3.024e-4
-0.113, 4.530e-6, 3.051e-4
-0.119, 4.531e-6, 3.078e-4
-0.125, 4.531e-6, 3.105e-4
-0.131, 4.533e-6, 3.132e-4
-0.137, 4.537e-6, 3.160e-4
-0.143, 4.555e-6, 3.187e-4
-0.149, 4.565e-6, 3.214e-4
-0.155, 4.574e-6, 3.242e-4
-0.161, 4.576e-6, 3.269e-4
-0.167, 4.582e-6, 3.297e-4
-0.173, 4.606e-6, 3.324e-4
-0.179, 4.619e-6, 3.352e-4
-0.185, 4.625e-6, 3.380e-4
-0.191, 4.631e-6, 3.407e-4
-0.197, 4.653e-6, 3.435e-4
-0.203, 4.673e-6, 3.463e-4
-0.209, 4.680e-6, 3.491e-4
-0.215, 4.704e-6, 3.519e-4
-0.221, 4.722e-6, 3.548e-4
-0.227, 4.723e-6, 3.576e-4
-0.233, 4.724e-6, 3.604e-4
-0.239, 4.729e-6, 3.633e-4
-0.245, 4.737e-6, 3.661e-4
-0.251, 4.747e-6, 3.690e-4
-0.257, 4.762e-6, 3.718e-4
-0.263, 4.761e-6, 3.747e-4
-0.269, 4.758e-6, 3.775e-4
-0.275, 4.738e-6, 3.804e-4
-0.281, 4.729e-6, 3.832e-4
-0.287, 4.733e-6, 3.860e-4
-0.293, 4.742e-6, 3.889e-4
-0.299, 4.773e-6, 3.917e-4