Folder: Physical-Chemistry-Experiment/循环伏安/analysis/114514 (part 3)

File: oxide_str_air.txt
Nov. 2, 2023   12:55:03
Cyclic Voltammetry
File: c:\users\dell\desktop\电化学数据\114514\oxide_str_air.txt
Data Source:  Experiment
Instrument Model:  CHI600B
Header:
Note:

Init E (V) = -0.25
High E (V) = 1.25
Low E (V) = -0.3
Init P/N = P
Scan Rate (V/s) = 0.1
Segment = 8
Sample Interval (V) = 0.01
Quiet Time (sec) = 1
Sensitivity (A/V) = 1e-5

Segment 1:
Segment 2:
Ep = 0.280V
ip = 1.748e-5A
Ah = 2.269e-5C

Ep = 0.140V
ip = 4.916e-6A
Ah = 7.617e-7C

Ep = -0.240V
ip = 9.030e-7A
Ah = 4.800e-7C

Segment 3:
Segment 4:
Ep = 0.330V
ip = 1.736e-5A
Ah = 1.694e-5C

Segment 5:
Segment 6:
Ep = 0.310V
ip = 1.853e-5A
Ah = 1.924e-5C

Ep = -0.120V
ip = 2.215e-6A
Ah = 2.054e-6C

Segment 7:
Segment 8:
Ep = 0.350V
ip = 1.817e-5A
Ah = 1.446e-5C

Ep = -0.240V
ip = 2.796e-6A
Ah = 8.569e-7C

Potential/V, Current/A, Charge/C

Segment 1:
-0.240, 1.718e-5, 1.718e-6
-0.230, 1.908e-5, 3.626e-6
-0.220, 1.829e-5, 5.454e-6
-0.210, 1.709e-5, 7.163e-6
-0.200, 1.839e-5, 9.002e-6
-0.190, 2.059e-5, 1.106e-5
-0.180, 2.060e-5, 1.312e-5
-0.170, 1.782e-5, 1.490e-5
-0.160, 1.752e-5, 1.666e-5
-0.150, 2.037e-5, 1.869e-5
-0.140, 1.949e-5, 2.064e-5
-0.130, 2.084e-5, 2.273e-5
-0.120, 2.054e-5, 2.478e-5
-0.110, 1.877e-5, 2.666e-5
-0.100, 1.888e-5, 2.854e-5
-0.090, 1.944e-5, 3.049e-5
-0.080, 1.916e-5, 3.240e-5
-0.070, 1.954e-5, 3.436e-5
-0.060, 1.821e-5, 3.618e-5
-0.050, 1.704e-5, 3.788e-5
-0.040, 1.698e-5, 3.958e-5
-0.030, 1.823e-5, 4.140e-5
-0.020, 2.185e-5, 4.359e-5
-0.010, 1.933e-5, 4.552e-5
0.000, 1.931e-5, 4.745e-5
0.010, 1.892e-5, 4.935e-5
0.020, 2.016e-5, 5.136e-5
0.030, 2.106e-5, 5.347e-5
0.040, 1.918e-5, 5.539e-5
0.050, 1.744e-5, 5.713e-5
0.060, 1.711e-5, 5.884e-5
0.070, 1.699e-5, 6.054e-5
0.080, 1.693e-5, 6.223e-5
0.090, 1.933e-5, 6.416e-5
0.100, 1.808e-5, 6.597e-5
0.110, 1.859e-5, 6.783e-5
0.120, 1.868e-5, 6.970e-5
0.130, 1.844e-5, 7.154e-5
0.140, 1.866e-5, 7.341e-5
0.150, 1.608e-5, 7.502e-5
0.160, 1.676e-5, 7.669e-5
0.170, 1.759e-5, 7.845e-5
0.180, 1.740e-5, 8.019e-5
0.190, 1.755e-5, 8.195e-5
0.200, 1.758e-5, 8.371e-5
0.210, 1.637e-5, 8.534e-5
0.220, 1.548e-5, 8.689e-5
0.230, 1.653e-5, 8.854e-5
0.240, 1.697e-5, 9.024e-5
0.250, 1.719e-5, 9.196e-5
0.260, 1.583e-5, 9.354e-5
0.270, 1.601e-5, 9.514e-5
0.280, 1.680e-5, 9.682e-5
0.290, 1.572e-5, 9.840e-5
0.300, 1.740e-5, 1.001e-4
0.310, 1.698e-5, 1.018e-4
0.320, 1.610e-5, 1.034e-4
0.330, 1.651e-5, 1.051e-4
0.340, 1.598e-5, 1.067e-4
0.350, 1.509e-5, 1.082e-4
0.360, 1.427e-5, 1.096e-4
0.370, 1.375e-5, 1.110e-4
0.380, 1.258e-5, 1.123e-4
0.390, 1.323e-5, 1.136e-4
0.400, 1.235e-5, 1.148e-4
0.410, 1.192e-5, 1.160e-4
0.420, 1.221e-5, 1.172e-4
0.430, 1.206e-5, 1.184e-4
0.440, 1.135e-5, 1.196e-4
0.450, 1.042e-5, 1.206e-4
0.460, 9.350e-6, 1.216e-4
0.470, 8.449e-6, 1.224e-4
0.480, 7.358e-6, 1.231e-4
0.490, 6.477e-6, 1.238e-4
0.500, 5.438e-6, 1.243e-4
0.510, 4.604e-6, 1.248e-4
0.520, 3.713e-6, 1.252e-4
0.530, 2.934e-6, 1.254e-4
0.540, 2.186e-6, 1.257e-4
0.550, 1.554e-6, 1.258e-4
0.560, 9.364e-7, 1.259e-4
0.570, 4.089e-7, 1.260e-4
0.580, -4.885e-8, 1.260e-4
0.590, -5.677e-7, 1.259e-4
0.600, -8.883e-7, 1.258e-4
0.610, -1.190e-6, 1.257e-4
0.620, -1.434e-6, 1.255e-4
0.630, -1.587e-6, 1.254e-4
0.640, -1.750e-6, 1.252e-4
0.650, -1.859e-6, 1.250e-4
0.660, -1.932e-6, 1.248e-4
0.670, -2.026e-6, 1.246e-4
0.680, -2.051e-6, 1.244e-4
0.690, -2.094e-6, 1.242e-4
0.700, -2.142e-6, 1.240e-4
0.710, -2.149e-6, 1.238e-4
0.720, -2.196e-6, 1.236e-4
0.730, -2.208e-6, 1.233e-4
0.740, -2.217e-6, 1.231e-4
0.750, -2.258e-6, 1.229e-4
0.760, -2.258e-6, 1.227e-4
0.770, -2.280e-6, 1.224e-4
0.780, -2.309e-6, 1.222e-4
0.790, -2.308e-6, 1.220e-4
0.800, -2.352e-6, 1.217e-4
0.810, -2.372e-6, 1.215e-4
0.820, -2.388e-6, 1.213e-4
0.830, -2.438e-6, 1.210e-4
0.840, -2.455e-6, 1.208e-4
0.850, -2.493e-6, 1.205e-4
0.860, -2.536e-6, 1.203e-4
0.870, -2.561e-6, 1.200e-4
0.880, -2.612e-6, 1.198e-4
0.890, -2.640e-6, 1.195e-4
0.900, -2.676e-6, 1.192e-4
0.910, -2.727e-6, 1.190e-4
0.920, -2.751e-6, 1.187e-4
0.930, -2.795e-6, 1.184e-4
0.940, -2.835e-6, 1.181e-4
0.950, -2.857e-6, 1.178e-4
0.960, -2.907e-6, 1.175e-4
0.970, -2.935e-6, 1.172e-4
0.980, -2.963e-6, 1.170e-4
0.990, -3.008e-6, 1.167e-4
1.000, -3.022e-6, 1.163e-4
1.010, -3.054e-6, 1.160e-4
1.020, -3.089e-6, 1.157e-4
1.030, -3.102e-6, 1.154e-4
1.040, -3.137e-6, 1.151e-4
1.050, -3.153e-6, 1.148e-4
1.060, -3.171e-6, 1.145e-4
1.070, -3.203e-6, 1.142e-4
1.080, -3.212e-6, 1.138e-4
1.090, -3.232e-6, 1.135e-4
1.100, -3.260e-6, 1.132e-4
1.110, -3.270e-6, 1.129e-4
1.120, -3.308e-6, 1.125e-4
1.130, -3.336e-6, 1.122e-4
1.140, -3.366e-6, 1.119e-4
1.150, -3.411e-6, 1.115e-4
1.160, -3.448e-6, 1.112e-4
1.170, -3.507e-6, 1.108e-4
1.180, -3.575e-6, 1.105e-4
1.190, -3.645e-6, 1.101e-4
1.200, -3.742e-6, 1.097e-4
1.210, -3.851e-6, 1.093e-4
1.220, -3.982e-6, 1.089e-4
1.230, -4.155e-6, 1.085e-4
1.240, -4.339e-6, 1.081e-4

Segment 2:
1.250, -3.755e-6, 1.077e-4
1.240, -2.685e-6, 1.074e-4
1.230, -2.026e-6, 1.072e-4
1.220, -1.586e-6, 1.071e-4
1.210, -1.279e-6, 1.070e-4
1.200, -1.051e-6, 1.069e-4
1.190, -8.929e-7, 1.068e-4
1.180, -7.549e-7, 1.067e-4
1.170, -6.581e-7, 1.066e-4
1.160, -5.835e-7, 1.066e-4
1.150, -5.092e-7, 1.065e-4
1.140, -4.647e-7, 1.065e-4
1.130, -4.161e-7, 1.064e-4
1.120, -3.637e-7, 1.064e-4
1.110, -3.201e-7, 1.064e-4
1.100, -2.497e-7, 1.063e-4
1.090, -2.109e-7, 1.063e-4
1.080, -1.719e-7, 1.063e-4
1.070, -1.439e-7, 1.063e-4
1.060, -1.305e-7, 1.063e-4
1.050, -1.076e-7, 1.063e-4
1.040, -8.948e-8, 1.062e-4
1.030, -8.288e-8, 1.062e-4
1.020, -5.589e-8, 1.062e-4
1.010, -4.820e-8, 1.062e-4
1.000, -3.058e-8, 1.062e-4
0.990, -4.873e-9, 1.062e-4
0.980, -5.012e-9, 1.062e-4
0.970, 1.327e-8, 1.062e-4
0.960, 2.802e-8, 1.062e-4
0.950, 3.737e-8, 1.062e-4
0.940, 6.202e-8, 1.062e-4
0.930, 6.841e-8, 1.062e-4
0.920, 7.820e-8, 1.063e-4
0.910, 9.838e-8, 1.063e-4
0.900, 1.065e-7, 1.063e-4
0.890, 1.278e-7, 1.063e-4
0.880, 1.418e-7, 1.063e-4
0.870, 1.472e-7, 1.063e-4
0.860, 1.739e-7, 1.063e-4
0.850, 1.850e-7, 1.064e-4
0.840, 1.979e-7, 1.064e-4
0.830, 2.272e-7, 1.064e-4
0.820, 2.276e-7, 1.064e-4
0.810, 2.523e-7, 1.064e-4
0.800, 2.733e-7, 1.065e-4
0.790, 2.831e-7, 1.065e-4
0.780, 3.179e-7, 1.065e-4
0.770, 3.331e-7, 1.066e-4
0.760, 3.525e-7, 1.066e-4
0.750, 3.865e-7, 1.066e-4
0.740, 4.041e-7, 1.067e-4
0.730, 4.366e-7, 1.067e-4
0.720, 4.705e-7, 1.068e-4
0.710, 4.877e-7, 1.068e-4
0.700, 5.370e-7, 1.069e-4
0.690, 5.690e-7, 1.069e-4
0.680, 6.010e-7, 1.070e-4
0.670, 6.574e-7, 1.071e-4
0.660, 6.906e-7, 1.071e-4
0.650, 7.408e-7, 1.072e-4
0.640, 7.996e-7, 1.073e-4
0.630, 8.428e-7, 1.074e-4
0.620, 9.226e-7, 1.075e-4
0.610, 9.832e-7, 1.076e-4
0.600, 1.051e-6, 1.077e-4
0.590, 1.157e-6, 1.078e-4
0.580, 1.251e-6, 1.079e-4
0.570, 1.360e-6, 1.080e-4
0.560, 1.493e-6, 1.082e-4
0.550, 1.610e-6, 1.083e-4
0.540, 1.776e-6, 1.085e-4
0.530, 1.965e-6, 1.087e-4
0.520, 2.164e-6, 1.089e-4
0.510, 2.436e-6, 1.092e-4
0.500, 2.736e-6, 1.095e-4
0.490, 3.107e-6, 1.098e-4
0.480, 3.593e-6, 1.101e-4
0.470, 4.181e-6, 1.105e-4
0.460, 4.958e-6, 1.110e-4
0.450, 5.931e-6, 1.116e-4
0.440, 7.094e-6, 1.123e-4
0.430, 8.538e-6, 1.132e-4
0.420, 1.016e-5, 1.142e-4
0.410, 1.192e-5, 1.154e-4
0.400, 1.370e-5, 1.168e-4
0.390, 1.537e-5, 1.183e-4
0.380, 1.698e-5, 1.200e-4
0.370, 1.846e-5, 1.219e-4
0.360, 1.928e-5, 1.238e-4
0.350, 1.941e-5, 1.257e-4
0.340, 2.002e-5, 1.277e-4
0.330, 1.971e-5, 1.297e-4
0.320, 1.915e-5, 1.316e-4
0.310, 1.810e-5, 1.334e-4
0.300, 1.816e-5, 1.352e-4
[...]
1.080, -1.706e-7, 9.708e-4
1.070, -1.402e-7, 9.707e-4
1.060, -1.340e-7, 9.707e-4
1.050, -1.124e-7, 9.707e-4
1.040, -9.341e-8, 9.707e-4
1.030, -8.038e-8, 9.707e-4
1.020, -5.325e-8, 9.707e-4
1.010, -4.600e-8, 9.707e-4
1.000, -3.717e-8, 9.707e-4
0.990, -1.037e-8, 9.707e-4
0.980, -5.051e-9, 9.707e-4
0.970, 1.474e-8, 9.707e-4
0.960, 3.081e-8, 9.707e-4
0.950, 2.852e-8, 9.707e-4
0.940, 5.530e-8, 9.707e-4
0.930, 6.945e-8, 9.707e-4
0.920, 7.745e-8, 9.707e-4
0.910, 9.619e-8, 9.707e-4
0.900, 1.008e-7, 9.707e-4
0.890, 1.249e-7, 9.708e-4
0.880, 1.439e-7, 9.708e-4
0.870, 1.481e-7, 9.708e-4
0.860, 1.722e-7, 9.708e-4
0.850, 1.817e-7, 9.708e-4
0.840, 1.944e-7, 9.708e-4
0.830, 2.265e-7, 9.709e-4
0.820, 2.298e-7, 9.709e-4
0.810, 2.556e-7, 9.709e-4
0.800, 2.764e-7, 9.709e-4
0.790, 2.858e-7, 9.710e-4
0.780, 3.204e-7, 9.710e-4
0.770, 3.359e-7, 9.710e-4
0.760, 3.567e-7, 9.711e-4
0.750, 3.901e-7, 9.711e-4
0.740, 4.067e-7, 9.711e-4
0.730, 4.414e-7, 9.712e-4
0.720, 4.755e-7, 9.712e-4
0.710, 4.945e-7, 9.713e-4
0.700, 5.437e-7, 9.713e-4
0.690, 5.751e-7, 9.714e-4
0.680, 6.106e-7, 9.715e-4
0.670, 6.668e-7, 9.715e-4
0.660, 6.975e-7, 9.716e-4
0.650, 7.536e-7, 9.717e-4
0.640, 8.120e-7, 9.717e-4
0.630, 8.586e-7, 9.718e-4
0.620, 9.380e-7, 9.719e-4
0.610, 1.004e-6, 9.720e-4
0.600, 1.078e-6, 9.721e-4
0.590, 1.185e-6, 9.723e-4
0.580, 1.281e-6, 9.724e-4
0.570, 1.397e-6, 9.725e-4
0.560, 1.535e-6, 9.727e-4
0.550, 1.660e-6, 9.728e-4
0.540, 1.839e-6, 9.730e-4
0.530, 2.036e-6, 9.732e-4
0.520, 2.255e-6, 9.735e-4
0.510, 2.549e-6, 9.737e-4
0.500, 2.881e-6, 9.740e-4
0.490, 3.296e-6, 9.743e-4
0.480, 3.851e-6, 9.747e-4
0.470, 4.548e-6, 9.752e-4
0.460, 5.480e-6, 9.757e-4
0.450, 6.659e-6, 9.764e-4
0.440, 8.119e-6, 9.772e-4
0.430, 9.902e-6, 9.782e-4
0.420, 1.192e-5, 9.794e-4
0.410, 1.405e-5, 9.808e-4
0.400, 1.620e-5, 9.824e-4
0.390, 1.789e-5, 9.842e-4
0.380, 1.918e-5, 9.861e-4
0.370, 2.086e-5, 9.882e-4
0.360, 2.162e-5, 9.904e-4
0.350, 2.173e-5, 9.925e-4
0.340, 2.170e-5, 9.947e-4
0.330, 2.134e-5, 9.968e-4
0.320, 2.136e-5, 9.990e-4
0.310, 1.974e-5, 1.001e-3
0.300, 1.909e-5, 1.003e-3
0.290, 1.949e-5, 1.005e-3
0.280, 1.987e-5, 1.007e-3
0.270, 1.953e-5, 1.009e-3
0.260, 1.958e-5, 1.011e-3
0.250, 1.972e-5, 1.013e-3
0.240, 1.931e-5, 1.015e-3
0.230, 1.975e-5, 1.017e-3
0.220, 2.018e-5, 1.019e-3
0.210, 2.037e-5, 1.021e-3
0.200, 2.128e-5, 1.023e-3
0.190, 1.919e-5, 1.025e-3
0.180, 1.931e-5, 1.027e-3
0.170, 1.874e-5, 1.028e-3
0.160, 1.974e-5, 1.030e-3
0.150, 2.414e-5, 1.033e-3
0.140, 2.260e-5, 1.035e-3
0.130, 2.215e-5, 1.037e-3
0.120, 2.373e-5, 1.040e-3
0.110, 2.206e-5, 1.042e-3
0.100, 2.138e-5, 1.044e-3
0.090, 2.151e-5, 1.046e-3
0.080, 2.134e-5, 1.048e-3
0.070, 2.302e-5, 1.051e-3
0.060, 2.185e-5, 1.053e-3
0.050, 2.345e-5, 1.055e-3
0.040, 2.380e-5, 1.058e-3
0.030, 2.188e-5, 1.060e-3
0.020, 1.974e-5, 1.062e-3
0.010, 1.880e-5, 1.064e-3
0.000, 1.960e-5, 1.066e-3
-0.010, 2.115e-5, 1.068e-3
-0.020, 2.077e-5, 1.070e-3
-0.030, 1.946e-5, 1.072e-3
-0.040, 1.893e-5, 1.074e-3
-0.050, 2.107e-5, 1.076e-3
-0.060, 2.110e-5, 1.078e-3
-0.070, 2.280e-5, 1.080e-3
-0.080, 2.265e-5, 1.082e-3
-0.090, 2.136e-5, 1.084e-3
-0.100, 2.257e-5, 1.087e-3
-0.110, 2.389e-5, 1.089e-3
-0.120, 2.718e-5, 1.092e-3
-0.130, 2.635e-5, 1.094e-3
-0.140, 2.633e-5, 1.097e-3
-0.150, 2.539e-5, 1.100e-3
-0.160, 2.348e-5, 1.102e-3
-0.170, 2.428e-5, 1.104e-3
-0.180, 2.624e-5, 1.107e-3
-0.190, 2.450e-5, 1.110e-3
-0.200, 2.581e-5, 1.112e-3
-0.210, 2.605e-5, 1.115e-3
-0.220, 2.414e-5, 1.117e-3
-0.230, 2.612e-5, 1.120e-3
-0.240, 2.775e-5, 1.122e-3
-0.250, 2.573e-5, 1.125e-3
-0.260, 2.633e-5, 1.128e-3
-0.270, 2.627e-5, 1.130e-3
-0.280, 2.474e-5, 1.133e-3
-0.290, 2.458e-5, 1.135e-3
-0.300, 2.021e-5, 1.137e-3

File: oxideLSV_air.txt
Nov. 2, 2023   13:15:40
Linear Sweep Voltammetry
File: c:\users\dell\desktop\电化学数据\114514\oxidelsv_air.txt
Data Source:  Experiment
Instrument Model:  CHI600B
Header:
Note:

Init E (V) = 1.25
Final E (V) = -0.3
Scan Rate (V/s) = 0.01
Sample Interval (V) = 0.001
Quiet Time (sec) = 2
Sensitivity (A/V) = 1e-5

Potential/V, Current/A, Charge/C

Segment 1:
1.249, -4.965e-6, -4.965e-7
1.243, -1.729e-6, -1.932e-6
1.237, -1.202e-6, -2.762e-6
1.231, -9.482e-7, -3.388e-6
1.225, -7.948e-7, -3.900e-6
1.219, -6.929e-7, -4.338e-6
1.213, -6.004e-7, -4.720e-6
1.207, -5.500e-7, -5.063e-6
1.201, -5.003e-7, -5.372e-6
1.195, -4.533e-7, -5.653e-6
1.189, -4.130e-7, -5.915e-6
1.183, -4.028e-7, -6.158e-6
1.177, -3.664e-7, -6.390e-6
1.171, -3.546e-7, -6.604e-6
1.165, -3.104e-7, -6.806e-6
1.159, -2.207e-7, -6.958e-6
1.153, -2.082e-7, -7.085e-6
1.147, -2.013e-7, -7.208e-6
1.141, -1.860e-7, -7.324e-6
1.135, -1.668e-7, -7.429e-6
1.129, -1.607e-7, -7.526e-6
1.123, -1.599e-7, -7.622e-6
1.117, -1.579e-7, -7.718e-6
1.111, -1.502e-7, -7.810e-6
1.105, -1.392e-7, -7.897e-6
1.099, -1.247e-7, -7.975e-6
1.093, -1.153e-7, -8.046e-6
1.087, -1.122e-7, -8.114e-6
1.081, -1.113e-7, -8.181e-6
1.075, -1.109e-7, -8.248e-6
1.069, -1.096e-7, -8.314e-6
1.063, -1.067e-7, -8.379e-6
1.057, -1.021e-7, -8.441e-6
1.051, -9.642e-8, -8.500e-6
1.045, -8.914e-8, -8.555e-6
1.039, -8.254e-8, -8.605e-6
1.033, -7.382e-8, -8.651e-6
1.027, -6.890e-8, -8.693e-6
1.021, -6.564e-8, -8.733e-6
1.015, -6.440e-8, -8.772e-6
1.009, -6.327e-8, -8.810e-6
1.003, -6.268e-8, -8.847e-6
0.997, -6.239e-8, -8.885e-6
0.991, -6.202e-8, -8.922e-6
0.985, -6.129e-8, -8.959e-6
0.979, -5.990e-8, -8.996e-6
0.973, -5.704e-8, -9.031e-6
0.967, -5.368e-8, -9.064e-6
0.961, -5.019e-8, -9.095e-6
0.955, -4.446e-8, -9.123e-6
0.949, -3.785e-8, -9.148e-6
0.943, -3.155e-8, -9.169e-6
0.937, -2.457e-8, -9.185e-6
0.931, -2.111e-8, -9.199e-6
0.925, -1.796e-8, -9.210e-6
0.919, -1.609e-8, -9.220e-6
0.913, -1.477e-8, -9.230e-6
0.907, -1.410e-8, -9.238e-6
0.901, -1.379e-8, -9.247e-6
0.895, -1.333e-8, -9.255e-6
0.889, -1.292e-8, -9.263e-6
0.883, -1.210e-8, -9.270e-6
0.877, -1.093e-8, -9.277e-6
0.871, -9.258e-9, -9.283e-6
0.865, -6.227e-9, -9.288e-6
0.859, -3.394e-9, -9.291e-6
0.853, 1.189e-9, -9.292e-6
0.847, 5.997e-9, -9.290e-6
0.841, 1.145e-8, -9.285e-6
0.835, 1.698e-8, -9.277e-6
0.829, 2.214e-8, -9.265e-6
0.823, 2.624e-8, -9.251e-6
0.817, 2.916e-8, -9.234e-6
0.811, 3.184e-8, -9.216e-6
0.805, 3.336e-8, -9.196e-6
0.799, 3.425e-8, -9.176e-6
0.793, 3.466e-8, -9.155e-6
0.787, 3.501e-8, -9.134e-6
0.781, 3.514e-8, -9.113e-6
0.775, 3.527e-8, -9.092e-6
0.769, 3.539e-8, -9.071e-6
0.763, 3.565e-8, -9.049e-6
0.757, 3.620e-8, -9.028e-6
0.751, 3.752e-8, -9.006e-6
0.745, 3.982e-8, -8.983e-6
0.739, 4.346e-8, -8.958e-6
0.733, 4.880e-8, -8.930e-6
0.727, 5.588e-8, -8.898e-6
0.721, 6.497e-8, -8.861e-6
0.715, 7.188e-8, -8.820e-6
0.709, 7.742e-8, -8.775e-6
0.703, 8.098e-8, -8.727e-6
0.697, 8.281e-8, -8.678e-6
0.691, 8.359e-8, -8.628e-6
0.685, 8.409e-8, -8.578e-6
0.679, 8.462e-8, -8.527e-6
0.673, 8.579e-8, -8.476e-6
0.667, 8.806e-8, -8.424e-6
0.661, 9.280e-8, -8.369e-6
0.655, 9.937e-8, -8.310e-6
0.649, 1.085e-7, -8.247e-6
0.643, 1.174e-7, -8.178e-6
0.637, 1.249e-7, -8.105e-6
0.631, 1.300e-7, -8.028e-6
0.625, 1.322e-7, -7.949e-6
0.619, 1.329e-7, -7.869e-6
0.613, 1.338e-7, -7.789e-6
0.607, 1.374e-7, -7.708e-6
0.601, 1.474e-7, -7.623e-6
0.595, 1.632e-7, -7.529e-6
0.589, 1.758e-7, -7.426e-6
0.583, 1.809e-7, -7.319e-6
0.577, 1.819e-7, -7.210e-6
0.571, 1.847e-7, -7.100e-6
0.565, 1.982e-7, -6.985e-6
0.559, 2.207e-7, -6.858e-6
0.553, 2.298e-7, -6.721e-6
0.547, 2.309e-7, -6.583e-6
0.541, 2.400e-7, -6.443e-6
0.535, 2.705e-7, -6.288e-6
0.529, 2.795e-7, -6.122e-6
0.523, 2.916e-7, -5.951e-6
0.517, 3.246e-7, -5.763e-6
0.511, 3.329e-7, -5.566e-6
0.505, 3.760e-7, -5.350e-6
0.499, 4.035e-7, -5.119e-6
0.493, 4.294e-7, -4.864e-6
0.487, 4.785e-7, -4.585e-6
0.481, 5.300e-7, -4.277e-6
0.475, 6.140e-7, -3.930e-6
0.469, 6.812e-7, -3.540e-6
0.463, 7.886e-7, -3.093e-6
0.457, 9.140e-7, -2.577e-6
0.451, 1.070e-6, -1.974e-6
0.445, 1.294e-6, -1.257e-6
0.439, 1.538e-6, -3.987e-7
0.433, 1.829e-6, 6.225e-7
0.427, 2.197e-6, 1.845e-6
0.421, 2.649e-6, 3.317e-6
0.415, 3.193e-6, 5.093e-6
0.409, 3.813e-6, 7.222e-6
0.403, 4.557e-6, 9.761e-6
0.397, 5.312e-6, 1.276e-5
0.391, 6.356e-6, 1.630e-5
0.385, 7.326e-6, 2.045e-5
0.379, 8.206e-6, 2.518e-5
0.373, 8.758e-6, 3.024e-5
0.367, 1.019e-5, 3.597e-5
0.361, 1.060e-5, 4.231e-5
0.355, 1.108e-5, 4.870e-5
0.349, 1.258e-5, 5.595e-5
0.343, 1.240e-5, 6.350e-5
0.337, 1.402e-5, 7.135e-5
0.331, 1.497e-5, 8.027e-5
0.325, 1.483e-5, 8.885e-5
0.319, 1.422e-5, 9.799e-5
0.313, 1.530e-5, 1.069e-4
0.307, 1.451e-5, 1.161e-4
0.301, 1.596e-5, 1.253e-4
0.295, 1.580e-5, 1.342e-4
0.289, 1.527e-5, 1.443e-4
0.283, 1.653e-5, 1.542e-4
0.277, 1.697e-5, 1.641e-4
0.271, 1.798e-5, 1.743e-4
0.265, 1.836e-5, 1.850e-4
0.259, 1.551e-5, 1.948e-4
0.253, 1.417e-5, 2.034e-4
0.247, 1.946e-5, 2.135e-4
0.241, 2.037e-5, 2.263e-4
0.235, 1.846e-5, 2.371e-4
0.229, 1.696e-5, 2.478e-4
0.223, 1.687e-5, 2.580e-4
0.217, 1.827e-5, 2.688e-4
0.211, 1.889e-5, 2.798e-4
0.205, 1.647e-5, 2.902e-4
0.199, 1.754e-5, 3.001e-4
0.193, 2.012e-5, 3.128e-4
0.187, 1.872e-5, 3.236e-4
0.181, 1.877e-5, 3.354e-4
0.175, 2.027e-5, 3.474e-4
0.169, 1.596e-5, 3.586e-4
0.163, 1.986e-5, 3.690e-4
0.157, 2.150e-5, 3.812e-4
0.151, 1.891e-5, 3.935e-4
0.145, 1.900e-5, 4.048e-4
0.139, 1.635e-5, 4.146e-4
0.133, 1.962e-5, 4.259e-4
0.127, 1.526e-5, 4.365e-4
0.121, 1.886e-5, 4.471e-4
0.115, 1.562e-5, 4.569e-4
0.109, 1.814e-5, 4.672e-4
0.103, 1.888e-5, 4.781e-4
0.097, 1.826e-5, 4.900e-4
0.091, 1.674e-5, 5.006e-4
0.085, 2.230e-5, 5.129e-4
0.079, 1.928e-5, 5.238e-4
0.073, 1.972e-5, 5.355e-4
0.067, 1.573e-5, 5.459e-4
0.061, 1.730e-5, 5.576e-4
0.055, 1.427e-5, 5.667e-4
0.049, 1.531e-5, 5.761e-4
0.043, 2.064e-5, 5.872e-4
0.037, 1.923e-5, 5.987e-4
0.031, 2.091e-5, 6.110e-4
0.025, 1.712e-5, 6.233e-4
0.019, 2.073e-5, 6.334e-4
0.013, 1.861e-5, 6.455e-4
0.007, 2.163e-5, 6.569e-4
0.001, 1.845e-5, 6.696e-4
-0.005, 1.772e-5, 6.818e-4
-0.011, 1.995e-5, 6.937e-4
-0.017, 1.930e-5, 7.062e-4
-0.023, 1.626e-5, 7.163e-4
-0.029, 1.788e-5, 7.278e-4
-0.035, 1.857e-5, 7.388e-4
-0.041, 1.874e-5, 7.505e-4
-0.047, 2.324e-5, 7.637e-4
-0.053, 2.319e-5, 7.783e-4
-0.059, 2.085e-5, 7.912e-4
-0.065, 1.837e-5, 8.032e-4
-0.071, 2.201e-5, 8.161e-4
-0.077, 2.469e-5, 8.304e-4
-0.083, 1.802e-5, 8.425e-4
-0.089, 2.296e-5, 8.534e-4
-0.095, 2.074e-5, 8.664e-4
-0.101, 1.633e-5, 8.768e-4
-0.107, 2.261e-5, 8.895e-4
-0.113, 2.173e-5, 9.026e-4
-0.119, 1.951e-5, 9.153e-4
-0.125, 1.747e-5, 9.272e-4
-0.131, 2.144e-5, 9.410e-4
-0.137, 1.787e-5, 9.523e-4
-0.143, 2.279e-5, 9.637e-4
-0.149, 1.593e-5, 9.753e-4
-0.155, 2.082e-5, 9.878e-4
-0.161, 1.969e-5, 1.001e-3
-0.167, 2.196e-5, 1.012e-3
-0.173, 2.215e-5, 1.025e-3
-0.179, 1.978e-5, 1.038e-3
-0.185, 1.931e-5, 1.049e-3
-0.191, 2.110e-5, 1.061e-3
-0.197, 1.597e-5, 1.072e-3
-0.203, 1.703e-5, 1.082e-3
-0.209, 2.221e-5, 1.094e-3
-0.215, 2.063e-5, 1.108e-3
-0.221, 2.531e-5, 1.121e-3
-0.227, 1.880e-5, 1.134e-3
-0.233, 2.024e-5, 1.147e-3
-0.239, 1.859e-5, 1.159e-3
-0.245, 2.048e-5, 1.171e-3
-0.251, 1.979e-5, 1.184e-3
-0.257, 1.889e-5, 1.194e-3
-0.263, 2.009e-5, 1.207e-3
-0.269, 1.814e-5, 1.219e-3
-0.275, 1.567e-5, 1.229e-3
-0.281, 1.894e-5, 1.240e-3
-0.287, 2.123e-5, 1.252e-3
-0.293, 2.198e-5, 1.264e-3
-0.299, 2.142e-5, 1.277e-3

File: oxideLSV_str_air.txt
Nov. 2, 2023   13:10:47
Linear Sweep Voltammetry
File: c:\users\dell\desktop\电化学数据\114514\oxidelsv_str_air.txt
Data Source:  Experiment
Instrument Model:  CHI600B
Header:
Note:

Init E (V) = 1.25
Final E (V) = -0.3
Scan Rate (V/s) = 0.01
Sample Interval (V) = 0.001
Quiet Time (sec) = 2
Sensitivity (A/V) = 1e-5

Ep = 0.254V
ip = 2.020e-5A
Ah = 2.055e-4C

Ep = -0.120V
ip = 1.311e-5A
Ah = 1.247e-5C

Potential/V, Current/A, Charge/C

Segment 1:
1.249, -4.238e-6, -4.238e-7
1.243, -1.602e-6, -1.722e-6
1.237, -1.141e-6, -2.503e-6
1.231, -9.030e-7, -3.098e-6
1.225, -7.525e-7, -3.585e-6
1.219, -6.521e-7, -4.003e-6
1.213, -5.864e-7, -4.369e-6
1.207, -5.155e-7, -4.695e-6
1.201, -4.648e-7, -4.989e-6
1.195, -4.346e-7, -5.258e-6
1.189, -4.037e-7, -5.504e-6
1.183, -3.753e-7, -5.738e-6
1.177, -3.542e-7, -5.954e-6
1.171, -3.072e-7, -6.153e-6
1.165, -2.231e-7, -6.306e-6
1.159, -2.063e-7, -6.432e-6
1.153, -1.926e-7, -6.552e-6
1.147, -1.762e-7, -6.661e-6
1.141, -1.641e-7, -6.762e-6
1.135, -1.600e-7, -6.859e-6
1.129, -1.563e-7, -6.954e-6
1.123, -1.476e-7, -7.045e-6
1.117, -1.374e-7, -7.129e-6
1.111, -1.243e-7, -7.207e-6
1.105, -1.172e-7, -7.279e-6
1.099, -1.135e-7, -7.347e-6
1.093, -1.108e-7, -7.415e-6
1.087, -1.084e-7, -7.481e-6
1.081, -1.059e-7, -7.545e-6
1.075, -9.911e-8, -7.606e-6
1.069, -9.360e-8, -7.665e-6
1.063, -8.817e-8, -7.720e-6
1.057, -8.014e-8, -7.771e-6
1.051, -7.598e-8, -7.818e-6
1.045, -7.149e-8, -7.862e-6
1.039, -6.793e-8, -7.904e-6
1.033, -6.544e-8, -7.944e-6
1.027, -6.339e-8, -7.982e-6
1.021, -6.254e-8, -8.020e-6
1.015, -6.209e-8, -8.058e-6
1.009, -6.041e-8, -8.094e-6
1.003, -5.922e-8, -8.130e-6
0.997, -5.717e-8, -8.165e-6
0.991, -5.334e-8, -8.197e-6
0.985, -4.920e-8, -8.228e-6
0.979, -4.451e-8, -8.256e-6
0.973, -4.145e-8, -8.281e-6
0.967, -3.620e-8, -8.304e-6
0.961, -3.210e-8, -8.324e-6
0.955, -2.657e-8, -8.342e-6
0.949, -2.472e-8, -8.357e-6
0.943, -2.075e-8, -8.370e-6
0.937, -1.854e-8, -8.382e-6
0.931, -1.628e-8, -8.392e-6
0.925, -1.529e-8, -8.402e-6
0.919, -1.407e-8, -8.410e-6
0.913, -1.298e-8, -8.418e-6
0.907, -1.162e-8, -8.426e-6
0.901, -1.035e-8, -8.432e-6
0.895, -8.479e-9, -8.438e-6
0.889, -6.266e-9, -8.442e-6
0.883, -3.935e-9, -8.445e-6
0.877, 5.025e-10, -8.445e-6
0.871, 3.263e-9, -8.444e-6
0.865, 6.869e-9, -8.441e-6
0.859, 9.365e-9, -8.435e-6
0.853, 1.396e-8, -8.428e-6
0.847, 1.696e-8, -8.418e-6
0.841, 2.117e-8, -8.406e-6
0.835, 2.405e-8, -8.393e-6
0.829, 2.652e-8, -8.377e-6
0.823, 2.954e-8, -8.360e-6
0.817, 3.005e-8, -8.343e-6
0.811, 3.214e-8, -8.323e-6
0.805, 3.308e-8, -8.304e-6
0.799, 3.447e-8, -8.283e-6
0.793, 3.449e-8, -8.263e-6
0.787, 3.554e-8, -8.242e-6
0.781, 3.608e-8, -8.220e-6
0.775, 3.737e-8, -8.198e-6
0.769, 3.848e-8, -8.175e-6
0.763, 4.129e-8, -8.151e-6
0.757, 4.338e-8, -8.126e-6
0.751, 4.752e-8, -8.098e-6
0.745, 5.119e-8, -8.068e-6
0.739, 5.518e-8, -8.036e-6
0.733, 6.078e-8, -8.001e-6
0.727, 6.439e-8, -7.963e-6
0.721, 6.982e-8, -7.923e-6
0.715, 7.258e-8, -7.879e-6
0.709, 7.786e-8, -7.834e-6
0.703, 7.983e-8, -7.786e-6
0.697, 8.349e-8, -7.737e-6
0.691, 8.404e-8, -7.687e-6
0.685, 8.800e-8, -7.635e-6
0.679, 8.931e-8, -7.582e-6
0.673, 9.484e-8, -7.527e-6
0.667, 9.653e-8, -7.470e-6
0.661, 1.046e-7, -7.409e-6
0.655, 1.105e-7, -7.345e-6
0.649, 1.156e-7, -7.277e-6
0.643, 1.211e-7, -7.206e-6
0.637, 1.262e-7, -7.132e-6
0.631, 1.295e-7, -7.055e-6
0.625, 1.326e-7, -6.976e-6
0.619, 1.354e-7, -6.896e-6
0.613, 1.405e-7, -6.813e-6
0.607, 1.492e-7, -6.726e-6
0.601, 1.565e-7, -6.634e-6
0.595, 1.672e-7, -6.536e-6
0.589, 1.741e-7, -6.433e-6
0.583, 1.808e-7, -6.326e-6
0.577, 1.857e-7, -6.216e-6
0.571, 1.949e-7, -6.101e-6
0.565, 2.094e-7, -5.979e-6
0.559, 2.209e-7, -5.850e-6
0.553, 2.298e-7, -5.713e-6
0.547, 2.368e-7, -5.573e-6
0.541, 2.551e-7, -5.425e-6
0.535, 2.716e-7, -5.267e-6
0.529, 2.862e-7, -5.099e-6
0.523, 3.074e-7, -4.921e-6
0.517, 3.274e-7, -4.729e-6
0.511, 3.526e-7, -4.525e-6
0.505, 3.802e-7, -4.303e-6
0.499, 4.213e-7, -4.061e-6
0.493, 4.572e-7, -3.798e-6
0.487, 5.114e-7, -3.506e-6
0.481, 5.684e-7, -3.182e-6
0.475, 6.399e-7, -2.816e-6
0.469, 7.350e-7, -2.399e-6
0.463, 8.597e-7, -1.916e-6
0.457, 1.008e-6, -1.350e-6
0.451, 1.209e-6, -6.803e-7
0.445, 1.450e-6, 1.282e-7
0.439, 1.762e-6, 1.104e-6
0.433, 2.135e-6, 2.290e-6
0.427, 2.605e-6, 3.734e-6
0.421, 3.187e-6, 5.498e-6
0.415, 3.864e-6, 7.643e-6
0.409, 4.683e-6, 1.025e-5
0.403, 5.541e-6, 1.336e-5
0.397, 6.480e-6, 1.699e-5
0.391, 7.377e-6, 2.119e-5
0.385, 8.901e-6, 2.614e-5
0.379, 9.545e-6, 3.159e-5
0.373, 9.798e-6, 3.740e-5
0.367, 1.172e-5, 4.391e-5
0.361, 1.212e-5, 5.169e-5
0.355, 1.181e-5, 5.891e-5
0.349, 1.229e-5, 6.664e-5
0.343, 1.494e-5, 7.493e-5
0.337, 1.485e-5, 8.335e-5
0.331, 1.367e-5, 9.187e-5
0.325, 1.525e-5, 1.015e-4
0.319, 1.488e-5, 1.105e-4
0.313, 1.538e-5, 1.208e-4
0.307, 2.037e-5, 1.313e-4
0.301, 1.744e-5, 1.418e-4
0.295, 1.296e-5, 1.505e-4
0.289, 1.550e-5, 1.594e-4
0.283, 1.550e-5, 1.688e-4
0.277, 1.384e-5, 1.776e-4
0.271, 1.678e-5, 1.876e-4
0.265, 1.499e-5, 1.966e-4
0.259, 1.485e-5, 2.064e-4
0.253, 1.827e-5, 2.164e-4
0.247, 1.543e-5, 2.257e-4
0.241, 1.519e-5, 2.350e-4
0.235, 1.317e-5, 2.432e-4
0.229, 1.822e-5, 2.525e-4
0.223, 1.533e-5, 2.615e-4
0.217, 1.533e-5, 2.711e-4
0.211, 1.568e-5, 2.804e-4
0.205, 1.449e-5, 2.894e-4
0.199, 1.564e-5, 2.993e-4
0.193, 1.990e-5, 3.116e-4
0.187, 1.520e-5, 3.218e-4
0.181, 1.652e-5, 3.308e-4
0.175, 1.766e-5, 3.409e-4
0.169, 1.477e-5, 3.506e-4
0.163, 1.785e-5, 3.612e-4
0.157, 1.631e-5, 3.714e-4
0.151, 1.676e-5, 3.806e-4
0.145, 2.142e-5, 3.941e-4
0.139, 1.749e-5, 4.041e-4
0.133, 1.466e-5, 4.131e-4
0.127, 1.893e-5, 4.226e-4
0.121, 1.755e-5, 4.341e-4
0.115, 1.794e-5, 4.456e-4
0.109, 1.449e-5, 4.563e-4
0.103, 1.483e-5, 4.655e-4
0.097, 1.648e-5, 4.749e-4
0.091, 1.390e-5, 4.836e-4
0.085, 1.702e-5, 4.930e-4
0.079, 1.908e-5, 5.030e-4
0.073, 1.783e-5, 5.136e-4
0.067, 1.640e-5, 5.231e-4
0.061, 1.701e-5, 5.337e-4
0.055, 1.510e-5, 5.430e-4
0.049, 1.591e-5, 5.531e-4
0.043, 1.601e-5, 5.625e-4
0.037, 1.555e-5, 5.730e-4
0.031, 1.634e-5, 5.825e-4
0.025, 1.569e-5, 5.913e-4
0.019, 1.617e-5, 6.021e-4
0.013, 1.798e-5, 6.129e-4
0.007, 1.654e-5, 6.223e-4
0.001, 1.499e-5, 6.313e-4
-0.005, 2.013e-5, 6.421e-4
-0.011, 1.444e-5, 6.520e-4
-0.017, 1.737e-5, 6.621e-4
-0.023, 1.921e-5, 6.723e-4
-0.029, 1.569e-5, 6.822e-4
-0.035, 1.559e-5, 6.922e-4
-0.041, 1.900e-5, 7.021e-4
-0.047, 1.749e-5, 7.140e-4
-0.053, 2.039e-5, 7.243e-4
-0.059, 1.979e-5, 7.366e-4
-0.065, 1.967e-5, 7.471e-4
-0.071, 1.782e-5, 7.592e-4
-0.077, 1.806e-5, 7.698e-4
-0.083, 1.604e-5, 7.802e-4
-0.089, 1.778e-5, 7.907e-4
-0.095, 1.873e-5, 8.019e-4
-0.101, 1.819e-5, 8.129e-4
-0.107, 1.870e-5, 8.253e-4
-0.113, 2.490e-5, 8.371e-4
-0.119, 2.795e-5, 8.509e-4
-0.125, 2.622e-5, 8.655e-4
-0.131, 2.361e-5, 8.794e-4
-0.137, 2.052e-5, 8.939e-4
-0.143, 2.531e-5, 9.087e-4
-0.149, 1.954e-5, 9.226e-4
-0.155, 1.859e-5, 9.340e-4
-0.161, 1.878e-5, 9.456e-4
-0.167, 1.839e-5, 9.561e-4
-0.173, 2.052e-5, 9.682e-4
-0.179, 2.068e-5, 9.804e-4
-0.185, 1.887e-5, 9.925e-4
-0.191, 2.328e-5, 1.005e-3
-0.197, 1.802e-5, 1.018e-3
-0.203, 2.259e-5, 1.031e-3
-0.209, 2.278e-5, 1.043e-3
-0.215, 1.764e-5, 1.054e-3
-0.221, 1.963e-5, 1.066e-3
-0.227, 2.009e-5, 1.079e-3
-0.233, 2.108e-5, 1.090e-3
-0.239, 2.279e-5, 1.103e-3
-0.245, 1.980e-5, 1.115e-3
-0.251, 2.040e-5, 1.127e-3
-0.257, 1.710e-5, 1.139e-3
-0.263, 1.864e-5, 1.150e-3
-0.269, 2.138e-5, 1.162e-3
-0.275, 1.985e-5, 1.173e-3
-0.281, 1.693e-5, 1.184e-3
-0.287, 1.631e-5, 1.195e-3
-0.293, 1.822e-5, 1.206e-3
-0.299, 1.619e-5, 1.216e-3